subject,condition,signal_present,correct,rt,trial_num
2,bias,0,1,4.076,1
2,bias,0,0,1.167,2
2,bias,1,1,0.598,3
2,bias,1,1,0.375,4
2,bias,0,1,0.454,5
2,bias,1,1,0.4100000000002328,6
2,bias,1,1,0.3700000000002327,7
2,bias,1,1,0.559,8
2,bias,1,1,0.3250000000002328,9
2,bias,1,1,0.313,10
2,bias,0,1,0.27999999999976716,11
2,bias,0,1,0.353,12
2,bias,0,1,0.55,13
2,bias,1,0,0.9460000000002328,14
2,bias,1,1,0.73,15
2,bias,1,1,0.331,16
2,bias,1,1,0.353,17
2,bias,0,1,0.981,18
2,bias,0,1,0.502,19
2,bias,0,1,0.582,20
2,bias,0,1,0.313,21
2,bias,0,1,0.339,22
2,bias,0,1,0.407,23
2,bias,1,1,0.3760000000002328,24
2,no_bias,0,1,0.862,1
2,no_bias,1,1,0.419,2
2,no_bias,1,1,0.546,3
2,no_bias,0,1,0.34,4
2,no_bias,1,0,0.596,5
2,no_bias,0,1,0.344,6
2,no_bias,0,1,0.315,7
2,no_bias,1,1,0.321,8
2,no_bias,1,1,0.335,9
2,no_bias,0,1,0.337,10
2,no_bias,1,1,0.376,11
2,no_bias,0,1,1.4539999999997673,12
2,no_bias,1,1,0.332,13
2,no_bias,1,1,0.375,14
2,no_bias,1,1,0.581,15
2,no_bias,1,1,0.5989999999997672,16
2,no_bias,0,0,0.894,17
2,no_bias,0,1,0.9480000000002328,18
2,no_bias,0,1,0.688,19
2,no_bias,1,0,2.277,20
2,no_bias,0,1,0.4479999999997673,21
2,no_bias,0,1,0.33199999999976715,22
2,no_bias,1,1,0.266,23
2,no_bias,0,0,0.556,24
2,bias,0,1,1.759,25
2,bias,1,1,0.35200000000023285,26
2,bias,0,1,0.732,27
2,bias,1,0,1.867,28
2,bias,1,1,0.35399999999976717,29
2,bias,1,1,0.322,30
2,bias,0,1,0.3699999999997672,31
2,bias,1,1,1.129,32
2,bias,0,1,0.352,33
2,bias,0,1,0.446,34
2,bias,0,1,0.4330000000002327,35
2,bias,0,1,0.8610000000002328,36
2,bias,1,1,0.154,37
2,bias,0,1,1.06,38
2,bias,1,1,0.387,39
2,bias,0,1,0.615,40
2,bias,1,1,0.035,41
2,bias,0,1,0.297,42
2,bias,0,1,0.761,43
2,bias,0,1,0.347,44
2,bias,1,1,0.35800000000023285,45
2,bias,1,1,1.0400000000002327,46
2,bias,1,1,0.632,47
2,bias,1,1,0.258,48
2,bias,1,0,2.975,49
2,bias,0,1,6.924,50
2,bias,0,1,0.085,51
2,bias,0,1,0.372,52
2,bias,0,1,0.372,53
2,bias,0,1,0.428,54
2,bias,1,1,0.4079999999997672,55
2,bias,1,1,1.446,56
2,bias,1,1,0.407,57
2,bias,1,1,0.462,58
2,bias,0,1,3.349,59
2,bias,0,1,2.231625,60
2,bias,1,1,0.4310000000002327,61
2,bias,1,1,0.3660000000002327,62
2,bias,1,0,0.393,63
2,bias,1,0,1.103,64
2,bias,1,1,0.496,65
2,bias,1,0,0.846,66
2,bias,0,1,0.946,67
2,bias,0,1,0.403,68
2,bias,0,1,0.321,69
2,bias,0,1,0.033,70
2,bias,0,1,0.307,71
2,bias,1,1,0.3989999999997672,72
2,no_bias,0,1,0.828,25
2,no_bias,0,1,0.7510000000002328,26
2,no_bias,1,0,0.8609999999997672,27
2,no_bias,0,1,0.55,28
2,no_bias,1,1,0.52,29
2,no_bias,1,0,0.4920000000002327,30
2,no_bias,0,1,0.347,31
2,no_bias,0,0,0.5740000000002329,32
2,no_bias,0,1,0.524,33
2,no_bias,0,1,0.471,34
2,no_bias,1,0,0.5539999999997671,35
2,no_bias,0,1,0.5299999999997672,36
2,no_bias,0,1,0.5429999999997672,37
2,no_bias,1,1,1.764,38
2,no_bias,1,0,0.382,39
2,no_bias,1,0,0.409,40
2,no_bias,1,0,0.619,41
2,no_bias,1,0,0.444,42
2,no_bias,0,1,0.26800000000023283,43
2,no_bias,1,0,0.343,44
2,no_bias,0,1,0.458,45
2,no_bias,0,1,0.33899999999976715,46
2,no_bias,1,1,0.106,47
2,no_bias,1,0,0.3130000000002328,48
2,bias,1,0,0.6230000000002328,73
2,bias,0,1,5.093,74
2,bias,1,0,0.7940000000002329,75
2,bias,1,0,0.413,76
2,bias,1,1,0.844,77
2,bias,0,1,0.3650000000002327,78
2,bias,1,0,0.348,79
2,bias,1,1,0.433,80
2,bias,0,1,0.423,81
2,bias,0,1,0.396,82
2,bias,1,0,0.538,83
2,bias,0,1,0.783,84
2,bias,1,0,1.5458749999999708,85
2,bias,0,1,1.785,86
2,bias,1,0,0.7779999999997672,87
2,bias,0,1,0.845,88
2,bias,0,1,1.122,89
2,bias,0,1,1.943,90
2,bias,1,1,0.878,91
2,bias,1,0,0.7929999999997672,92
2,bias,0,1,0.8439999999997672,93
2,bias,0,1,6.587,94
2,bias,1,0,0.725,95
2,bias,0,1,0.356,96
2,no_bias,0,1,1.399,49
2,no_bias,0,1,0.902,50
2,no_bias,1,0,0.372,51
2,no_bias,0,1,0.913,52
2,no_bias,1,0,0.7169999999997672,53
2,no_bias,1,1,0.36200000000023275,54
2,no_bias,1,0,0.607,55
2,no_bias,1,0,0.291,56
2,no_bias,0,1,0.359,57
2,no_bias,0,1,0.6880000000002329,58
2,no_bias,1,0,0.681,59
2,no_bias,0,1,0.6569999999997672,60
2,no_bias,1,1,0.5849999999997672,61
2,no_bias,0,1,0.704,62
2,no_bias,1,1,0.364,63
2,no_bias,0,1,0.392,64
2,no_bias,1,1,0.345,65
2,no_bias,1,0,0.101,66
2,no_bias,0,1,0.376,67
2,no_bias,1,0,0.38,68
2,no_bias,0,1,0.317,69
2,no_bias,1,0,0.432,70
2,no_bias,0,1,0.3919999999997672,71
2,no_bias,0,1,0.348,72
2,bias,1,0,1.07,97
2,bias,1,0,0.3660000000002327,98
2,bias,1,0,0.401,99
2,bias,1,0,0.339,100
2,bias,0,1,0.326,101
2,bias,1,0,0.243,102
2,bias,0,1,0.272,103
2,bias,0,1,0.34700000000023284,104
2,bias,0,1,0.3019999999997672,105
2,bias,1,0,0.316,106
2,bias,1,0,0.687,107
2,bias,0,0,0.902,108
2,bias,0,1,0.396,109
2,bias,1,0,0.435,110
2,bias,0,1,0.409,111
2,bias,1,0,0.35,112
2,bias,0,1,0.364,113
2,bias,0,1,0.636,114
2,bias,1,1,0.5170000000004656,115
2,bias,0,1,0.3220000000002328,116
2,bias,0,1,0.8610000000004656,117
2,bias,0,0,0.5269999999995343,118
2,bias,1,0,0.538,119
2,bias,1,0,1.619000000000233,120
2,no_bias,1,0,0.3209999999997672,73
2,no_bias,1,1,0.5550000000002329,74
2,no_bias,0,1,0.27599999999976715,75
2,no_bias,0,0,0.379,76
2,no_bias,0,1,0.28100000000046566,77
2,no_bias,1,0,0.345,78
2,no_bias,0,1,0.415,79
2,no_bias,1,1,0.257,80
2,no_bias,0,1,0.655,81
2,no_bias,0,1,0.395,82
2,no_bias,0,1,0.374,83
2,no_bias,1,0,0.605,84
2,no_bias,0,1,0.321,85
2,no_bias,1,1,0.528,86
2,no_bias,1,1,0.319,87
2,no_bias,0,1,0.68,88
2,no_bias,1,1,0.439,89
2,no_bias,0,1,0.843,90
2,no_bias,0,1,0.604,91
2,no_bias,1,1,0.514,92
2,no_bias,1,0,0.317,93
2,no_bias,1,0,0.808,94
2,no_bias,0,1,0.456,95
2,no_bias,1,1,0.243,96
2,no_bias,0,1,3.481,97
2,no_bias,1,1,0.29900000000046567,98
2,no_bias,1,0,1.111,99
2,no_bias,1,1,1.224,100
2,no_bias,0,1,0.998,101
2,no_bias,0,1,0.38,102
2,no_bias,1,0,0.712,103
2,no_bias,1,0,0.392,104
2,no_bias,0,1,0.352,105
2,no_bias,1,0,0.48,106
2,no_bias,1,1,0.601,107
2,no_bias,0,1,0.319,108
2,no_bias,1,1,0.275,109
2,no_bias,0,1,0.33400000000046565,110
2,no_bias,0,1,0.207,111
2,no_bias,1,1,0.337,112
2,no_bias,0,1,0.67,113
2,no_bias,0,1,0.617,114
2,no_bias,1,1,1.19,115
2,no_bias,0,1,0.529,116
2,no_bias,1,1,0.342,117
2,no_bias,0,0,1.035,118
2,no_bias,1,1,0.33099999999953433,119
2,no_bias,0,1,0.495,120
2,no_bias,1,1,0.765,121
2,no_bias,1,1,0.399,122
2,no_bias,0,1,0.34,123
2,no_bias,1,1,0.3189999999995343,124
2,no_bias,1,1,0.19,125
2,no_bias,1,1,0.314,126
2,no_bias,1,1,0.167,127
2,no_bias,0,1,0.462,128
2,no_bias,0,1,0.587,129
2,no_bias,0,0,0.55,130
2,no_bias,0,1,0.308,131
2,no_bias,0,1,0.164,132
2,no_bias,0,1,0.599,133
2,no_bias,1,1,0.687,134
2,no_bias,1,1,0.35599999999953436,135
2,no_bias,0,1,0.408,136
2,no_bias,0,1,1.1820000000004656,137
2,no_bias,0,1,0.33999999999953434,138
2,no_bias,1,1,0.27,139
2,no_bias,0,1,0.6959999999995343,140
2,no_bias,1,1,0.339,141
2,no_bias,0,1,0.3,142
2,no_bias,1,1,0.318,143
2,no_bias,1,1,0.367,144
2,bias,0,1,5.094,121
2,bias,1,1,0.395,122
2,bias,1,1,0.333,123
2,bias,0,1,0.542,124
2,bias,1,1,0.182,125
2,bias,1,0,0.21900000000046568,126
2,bias,1,1,0.38899999999953433,127
2,bias,1,1,0.46,128
2,bias,0,1,0.389,129
2,bias,0,1,0.645,130
2,bias,0,1,1.029,131
2,bias,0,1,0.324,132
2,bias,0,1,0.364,133
2,bias,1,0,0.708,134
2,bias,0,1,0.652,135
2,bias,1,1,0.46,136
2,bias,0,1,1.108,137
2,bias,1,1,0.077,138
2,bias,1,1,0.392,139
2,bias,0,1,0.36,140
2,bias,1,1,0.11599999999953434,141
2,bias,0,1,0.497,142
2,bias,0,1,0.585,143
2,bias,1,0,1.652,144
3,no_bias,0,1,2.5975,1
3,no_bias,1,0,0.7397999999523163,2
3,no_bias,1,0,0.2945,3
3,no_bias,1,0,0.09580000007152556,4
3,no_bias,0,1,0.5617999999523163,5
3,no_bias,0,1,0.46039999997615816,6
3,no_bias,0,1,0.3121999999284744,7
3,no_bias,0,1,0.48779999995231627,8
3,no_bias,0,1,0.3437000000476837,9
3,no_bias,1,0,0.35110000002384184,10
3,no_bias,0,1,0.5568999999761581,11
3,no_bias,0,1,0.8546999999284745,12
3,no_bias,1,1,0.8577000000476838,13
3,no_bias,0,0,1.8952000000476832,14
3,no_bias,0,1,0.4893000000715256,15
3,no_bias,0,1,0.3246000000238419,16
3,no_bias,1,1,0.6749000000953674,17
3,no_bias,1,1,0.7103000000715256,18
3,no_bias,0,1,1.5028000000715256,19
3,no_bias,1,1,0.3452999999523163,20
3,no_bias,1,1,0.13379999995231628,21
3,no_bias,1,1,0.3298000000715256,22
3,no_bias,1,1,0.5193999999761582,23
3,no_bias,1,1,0.5174000000953675,24
3,no_bias,0,1,2.5807999999523163,25
3,no_bias,0,1,0.5635,26
3,no_bias,0,1,0.3876000000238419,27
3,no_bias,1,0,0.4048000000715256,28
3,no_bias,0,1,0.6883000000715256,29
3,no_bias,0,1,0.48860000002384185,30
3,no_bias,1,1,1.2647000000476836,31
3,no_bias,1,1,0.7452000000476837,32
3,no_bias,1,1,0.930100000023842,33
3,no_bias,1,1,0.5259000000953674,34
3,no_bias,1,1,0.5306000000238419,35
3,no_bias,0,0,0.9477000000476836,36
3,no_bias,1,1,0.41160000002384184,37
3,no_bias,0,1,0.5512000000476838,38
3,no_bias,1,1,0.4133999999761581,39
3,no_bias,0,1,0.6285,40
3,no_bias,1,1,0.453,41
3,no_bias,0,1,0.6138999999761582,42
3,no_bias,1,1,1.2026999999284744,43
3,no_bias,0,1,1.1392000000476834,44
3,no_bias,1,1,0.20969999992847443,45
3,no_bias,0,1,0.3495,46
3,no_bias,1,1,0.29810000002384185,47
3,no_bias,0,1,0.5707999999523163,48
3,no_bias,0,0,4.01173749999702,49
3,no_bias,1,1,1.2262000000476836,50
3,no_bias,1,1,0.7173999999761581,51
3,no_bias,1,1,1.0195,52
3,no_bias,1,1,0.9087000000476836,53
3,no_bias,0,1,1.1968999999761578,54
3,no_bias,1,1,6.517600000023842,55
3,no_bias,1,1,0.4265,56
3,no_bias,1,1,4.622699999928474,57
3,no_bias,0,1,0.629,58
3,no_bias,0,1,0.6456999999284744,59
3,no_bias,0,1,3.100899999976158,60
3,no_bias,1,1,0.8482999999523163,61
3,no_bias,1,1,1.3967999999523164,62
3,no_bias,1,0,2.4002999999523165,63
3,no_bias,1,0,0.7715,64
3,no_bias,0,0,4.230399999976158,65
3,no_bias,0,1,0.6171000000238419,66
3,no_bias,0,1,0.7497999999523163,67
3,no_bias,1,0,2.714099999904633,68
3,no_bias,0,1,0.8492000000476837,69
3,no_bias,0,0,8.630100000023841,70
3,no_bias,0,1,2.9027999999523164,71
3,bias,0,0,2.1293000000715256,1
3,bias,0,1,1.8305,2
3,bias,1,1,6.297699999928475,3
3,bias,1,1,1.8665999999046328,4
3,bias,1,1,0.456,5
3,bias,0,0,0.8318999999761582,6
3,bias,0,0,1.0972000000476836,7
3,bias,0,1,1.1363999999761578,8
3,bias,0,1,1.3071999999284745,9
3,bias,1,1,1.088100000023842,10
3,bias,1,1,0.45639999997615815,11
3,bias,1,1,0.32440000009536746,12
3,bias,1,1,0.2617999999523163,13
3,bias,1,1,0.276,14
3,bias,0,1,0.795,15
3,bias,1,1,0.4331999999284744,16
3,bias,1,1,0.382,17
3,bias,0,0,0.4238999999761581,18
3,bias,0,1,0.5866000000238418,19
3,bias,0,1,0.395,20
3,bias,1,1,0.29260000002384184,21
3,bias,1,1,0.27220000004768374,22
3,bias,0,1,0.4355,23
3,bias,0,1,0.3454000000953674,24
3,bias,1,0,2.276600000023842,25
3,bias,1,0,0.6808999999761581,26
3,bias,0,1,1.5373999999761578,27
3,bias,1,1,0.917899999976158,28
3,bias,1,1,0.549,29
3,bias,0,0,1.53804999999702,30
3,bias,0,1,1.193,31
3,bias,1,1,0.6498999999761581,32
3,bias,1,0,1.407399999976158,33
3,bias,0,0,0.4427999999523163,34
3,bias,0,1,1.9543000000715256,35
3,bias,0,1,0.6225,36
3,bias,1,0,0.999399999976158,37
3,bias,0,1,0.609,38
3,bias,1,0,2.472,39
3,bias,0,1,0.7251000000238419,40
3,bias,1,1,0.39620000004768374,41
3,bias,0,1,0.9834000000953674,42
3,bias,1,1,0.23860000002384185,43
3,bias,0,0,0.35880000007152557,44
3,bias,1,1,2.583024999991059,45
3,bias,0,1,0.980600000023842,46
3,bias,1,0,0.904399999976158,47
3,bias,0,1,1.5637000000476835,48
3,no_bias,1,1,3.979900000095367,72
3,no_bias,0,0,0.2025,73
3,no_bias,0,0,0.29510000002384185,74
3,no_bias,1,1,0.4456000000238418,75
3,no_bias,1,1,0.17480000007152555,76
3,no_bias,0,0,1.6184624999910593,77
3,no_bias,1,1,0.9132000000476836,78
3,no_bias,0,0,2.7611875,79
3,no_bias,1,1,1.9686999999284744,80
3,no_bias,0,1,6.256600000023842,81
3,no_bias,0,1,0.3762000000476837,82
3,no_bias,0,1,0.41929999995231626,83
3,no_bias,1,1,0.2747999999523163,84
3,no_bias,1,1,0.639,85
3,no_bias,0,1,0.7805,86
3,no_bias,1,1,0.636,87
3,no_bias,1,0,7.2061000000238415,88
3,no_bias,1,1,0.3246000000238419,89
3,no_bias,0,0,6.524,90
3,no_bias,0,1,0.5951999999284744,91
3,no_bias,0,0,0.5245,92
3,no_bias,1,1,0.07209999990463258,93
3,no_bias,1,1,0.5013999999761581,94
3,no_bias,0,1,0.4642000000476837,95
3,bias,0,1,1.771899999976158,49
3,bias,0,1,0.8961000000238418,50
3,bias,1,1,5.759199999928475,51
3,bias,1,1,0.5806000000238418,52
3,bias,1,1,0.4947000000476837,53
3,bias,0,0,0.35780000007152557,54
3,bias,1,1,1.0896000000238422,55
3,bias,0,1,0.524,56
3,bias,1,0,0.7847999999523163,57
3,bias,0,0,0.7673999999761582,58
3,bias,1,1,6.635099999994041,59
3,bias,0,0,0.3832000000476838,60
3,bias,0,0,7.992,61
3,bias,0,0,0.7407999999523163,62
3,bias,1,1,0.2582999999523163,63
3,bias,1,1,2.592399999976158,64
3,bias,0,0,2.6715,65
3,bias,1,1,1.777,66
3,bias,0,1,0.31110000002384186,67
3,bias,1,1,0.6428999999761581,68
3,bias,0,1,0.7717999999523163,69
3,bias,0,1,0.4306999999284744,70
3,bias,1,1,0.7428999999761582,71
3,bias,1,1,0.4428000000715256,72
3,no_bias,0,0,8.361399999976157,96
3,no_bias,1,1,0.5682000000476837,97
3,no_bias,1,1,0.2863999999761581,98
3,no_bias,1,1,0.41110000002384184,99
3,no_bias,1,1,0.7457999999523163,100
3,no_bias,1,1,0.29510000002384185,101
3,no_bias,0,1,1.13,102
3,no_bias,0,0,0.43389999997615813,103
3,no_bias,0,0,0.3875,104
3,no_bias,1,0,3.8118999999761582,105
3,no_bias,0,1,1.381899999976158,106
3,no_bias,1,1,0.5382999999523163,107
3,no_bias,1,0,0.8226000000238418,108
3,no_bias,0,0,0.3687000000476837,109
3,no_bias,1,0,0.6830999999046325,110
3,no_bias,0,1,0.488,111
3,no_bias,0,1,1.2462000000476834,112
3,no_bias,1,0,0.5133000000715255,113
3,no_bias,0,0,0.37759999990463256,114
3,no_bias,0,1,0.40260000002384183,115
3,no_bias,0,1,0.39339999997615815,116
3,no_bias,0,1,0.55,117
3,no_bias,1,1,0.4417000000476837,118
3,no_bias,1,1,0.383,119
3,bias,1,0,0.9461999999284744,73
3,bias,0,1,1.7653000000715255,74
3,bias,1,1,0.935100000023842,75
3,bias,0,1,3.714100000023842,76
3,bias,1,1,0.7322999999523163,77
3,bias,0,1,0.4205999999046326,78
3,bias,1,1,0.3527000000476837,79
3,bias,0,0,1.1401000000238422,80
3,bias,0,1,2.699600000023842,81
3,bias,1,1,0.6835,82
3,bias,1,0,0.8202999999523163,83
3,bias,1,1,0.34530000007152556,84
3,bias,1,1,0.32539999997615815,85
3,bias,1,1,7.4045,86
3,bias,0,1,1.565100000023842,87
3,bias,0,0,7.366,88
3,bias,0,1,1.317600000023842,89
3,bias,0,1,0.4268999999761582,90
3,bias,0,1,0.2961999999284744,91
3,bias,0,1,0.34489999997615817,92
3,bias,0,1,0.33889999997615816,93
3,bias,1,1,0.4183000000715256,94
3,bias,1,1,1.6678000000715256,95
3,bias,0,1,2.4038000000715254,96
3,bias,0,0,1.3385999999940394,97
3,bias,1,1,1.235100000023842,98
3,bias,0,0,0.46560000002384183,99
3,bias,1,1,0.176,100
3,bias,0,1,1.5148000000715256,101
3,bias,1,1,0.08810000002384186,102
3,bias,0,0,1.8815,103
3,bias,1,1,0.21390000009536744,104
3,bias,1,1,1.1875,105
3,bias,0,1,0.3775,106
3,bias,0,1,0.6638999999761581,107
3,bias,0,1,0.2942000000476837,108
3,bias,0,1,0.6572000000476838,109
3,bias,1,1,0.2535,110
3,bias,0,1,0.9342999999523164,111
3,bias,1,0,1.1175,112
3,bias,0,1,1.9603000000715256,113
3,bias,1,1,1.9005,114
3,bias,1,0,2.906600000023842,115
3,bias,1,1,0.6723999999761582,116
3,bias,0,0,2.959700000047684,117
3,bias,1,1,0.9727999999523164,118
3,bias,0,1,5.929,119
3,bias,1,1,0.8697999999523163,120
3,bias,1,1,0.3668999999761582,121
3,bias,0,1,0.7237000000476838,122
3,bias,1,1,0.584,123
3,bias,0,0,0.3291000000238419,124
3,bias,1,1,1.9745,125
3,bias,1,0,0.09829999995231628,126
3,bias,0,0,0.4545,127
3,bias,1,1,0.36560000002384185,128
3,bias,1,1,0.18010000002384186,129
3,bias,0,0,0.07370000004768372,130
3,bias,1,1,0.23860000002384185,131
3,bias,1,1,2.407,132
3,bias,1,1,2.355900000095367,133
3,bias,0,0,1.5577999999523164,134
3,bias,1,1,0.5190999999046325,135
3,bias,0,1,1.933,136
3,bias,0,0,0.4947000000476837,137
3,bias,0,1,0.32489999997615815,138
3,bias,1,1,0.5756000000238418,139
3,bias,0,0,0.43739999997615814,140
3,bias,0,1,2.564399999976158,141
3,bias,0,1,2.822400000095367,142
3,no_bias,1,1,7.794899999976158,120
3,no_bias,1,1,1.0217999999523164,121
3,no_bias,1,0,3.346700000047684,122
3,no_bias,1,1,1.0064000000953677,123
3,no_bias,0,0,1.4333374999910593,124
3,no_bias,0,1,1.025,125
3,no_bias,1,1,1.0182999999523163,126
3,no_bias,1,0,0.6906000000238418,127
3,no_bias,0,0,0.3173000000715256,128
3,no_bias,1,1,0.12469999992847444,129
3,no_bias,0,0,0.8918999999761581,130
3,no_bias,0,0,0.3562000000476837,131
3,no_bias,1,1,0.29929999995231626,132
3,no_bias,0,0,0.345,133
3,no_bias,0,1,0.4782000000476837,134
3,no_bias,1,1,0.36210000002384185,135
3,no_bias,1,0,0.7825,136
3,no_bias,0,0,0.3888000000715256,137
3,no_bias,0,0,0.7372999999523163,138
3,no_bias,0,0,0.6212000000476837,139
3,no_bias,1,1,0.8423999999761581,140
3,no_bias,0,0,0.48279999995231626,141
3,no_bias,0,0,0.5066000000238419,142
3,no_bias,1,1,0.34930000007152556,143
6,no_bias,1,1,8.853764999992446,1
6,no_bias,1,1,2.722339999992866,2
6,no_bias,1,1,2.5355750000015833,3
6,no_bias,1,1,2.677029999991646,4
6,no_bias,1,1,2.723570000001928,5
6,no_bias,0,1,2.502590000003809,6
6,no_bias,0,1,2.529300000009127,7
6,no_bias,0,1,2.3840500000079627,8
6,no_bias,1,1,2.4511300000012852,9
6,no_bias,0,1,2.6174450000107754,10
6,no_bias,0,1,2.1005799999984447,11
6,no_bias,0,1,2.417574999999488,12
6,no_bias,1,1,2.5126100000052247,13
6,no_bias,0,1,1.7395050000050103,14
6,no_bias,0,1,2.1160950000048615,15
6,no_bias,0,1,2.456269999995129,16
6,no_bias,1,0,3.102735000007786,17
6,no_bias,0,1,1.0383500000024215,18
6,no_bias,1,1,2.6020100000023376,19
6,no_bias,1,1,0.343974999996135,20
6,no_bias,0,1,1.2937499999969733,21
6,no_bias,1,0,2.3131949999951757,22
6,no_bias,1,1,1.0500050000119954,23
6,no_bias,0,1,0.8886999999959954,24
6,bias,1,0,5.468159999989439,1
6,bias,1,1,1.307889999996405,2
6,bias,1,1,1.754914999997709,3
6,bias,1,1,0.923804999998305,4
6,bias,0,1,0.9027849999982864,5
6,bias,0,1,1.323344999996945,6
6,bias,1,1,1.1342599999918603,7
6,bias,0,1,0.8725399999967777,8
6,bias,0,1,1.415724999999162,9
6,bias,1,1,0.8136700000031851,10
6,bias,1,1,0.7213250000057742,11
6,bias,1,1,0.8427300000037067,12
6,bias,0,1,2.3455400000093505,13
6,bias,1,1,7.697740000003018,14
6,bias,0,1,2.665964999992866,15
6,bias,0,1,0.8992949999957346,16
6,bias,1,1,0.7460250000003725,17
6,bias,0,1,1.2650449999929405,18
6,bias,1,1,1.24487499998929,19
6,bias,0,1,0.8526399999973364,20
6,bias,0,1,0.6546300000045449,21
6,bias,1,1,0.9084799999985844,22
6,bias,0,1,0.8603000000002794,23
6,bias,0,1,0.9596000000019558,24
6,no_bias,1,0,3.892275000005495,25
6,no_bias,0,1,0.6548349999939092,26
6,no_bias,1,1,0.842894999993965,27
6,no_bias,1,1,0.3790749999894761,28
6,no_bias,0,1,0.6945850000046193,29
6,no_bias,1,1,0.5824850000063889,30
6,no_bias,1,1,0.15667499999096618,31
6,no_bias,1,0,0.8280550000052899,32
6,no_bias,0,1,0.8446399999954738,33
6,no_bias,0,1,0.7156499999980442,34
6,no_bias,0,1,0.7492849999982863,35
6,no_bias,1,1,0.6191699999906123,36
6,no_bias,0,1,0.917000000001397,37
6,no_bias,0,1,1.0150750000029802,38
6,no_bias,1,1,0.6680599999963306,39
6,no_bias,0,1,0.6905200000037439,40
6,no_bias,1,1,0.5839500000001863,41
6,no_bias,0,1,2.6543149999924935,42
6,no_bias,1,1,0.6559649999979883,43
6,no_bias,1,1,0.5417299999971874,44
6,no_bias,0,1,0.7731550000025891,45
6,no_bias,1,1,0.3854150000116788,46
6,no_bias,0,1,2.749739999999292,47
6,no_bias,0,1,1.5389500000020488,48
6,bias,0,1,4.295425000003539,25
6,bias,0,1,1.8860349999889732,26
6,bias,1,1,1.4535550000001676,27
6,bias,1,1,0.9064599999985656,28
6,bias,0,1,0.6640050000133925,29
6,bias,1,1,0.9227799999937416,30
6,bias,1,1,0.6713949999976904,31
6,bias,1,1,0.6730549999917858,32
6,bias,0,1,0.6152150000128895,33
6,bias,0,1,0.9622999999988824,34
6,bias,1,1,0.6723999999957159,35
6,bias,0,1,0.6898650000076741,36
6,bias,0,1,0.5848600000026636,37
6,bias,0,1,1.0834100000066684,38
6,bias,1,1,0.8823399999965914,39
6,bias,0,1,0.7985350000089966,40
6,bias,1,1,0.7179449999965727,41
6,bias,1,1,1.352635000003036,42
6,bias,1,1,0.933765000008978,43
6,bias,1,1,0.9220100000090896,44
6,bias,0,1,0.6157050000037998,45
6,bias,0,1,0.7437199999983423,46
6,bias,0,1,1.2642950000008568,47
6,bias,1,0,2.624260000011418,48
6,bias,0,1,3.323569999992847,49
6,bias,1,1,0.9748849999890664,50
6,bias,0,1,0.9799849999980068,51
6,bias,0,1,0.640230000004638,52
6,bias,1,1,0.660550000000745,53
6,bias,0,1,0.8629049999872223,54
6,bias,0,1,1.406329999997746,55
6,bias,1,1,0.6880850000018254,56
6,bias,0,1,0.7670849999990315,57
6,bias,1,1,0.5779149999869987,58
6,bias,1,1,0.8021199999935925,59
6,bias,1,1,0.7454500000020489,60
6,bias,0,1,0.7125999999986962,61
6,bias,1,1,0.549249999997206,62
6,bias,0,1,0.6889799999911338,63
6,bias,1,1,1.135705000007525,64
6,bias,0,1,1.0027600000035015,65
6,bias,0,1,0.8971349999913946,66
6,bias,1,1,0.7255750000039115,67
6,bias,1,1,0.6679549999972806,68
6,bias,1,1,0.7446449999995529,69
6,bias,0,1,0.8513200000021607,70
6,bias,0,1,0.8492350000012666,71
6,bias,1,1,0.6143199999928475,72
6,bias,1,0,8.315354999998585,73
6,bias,0,1,0.5493149999966845,74
6,bias,0,1,0.6598050000034272,75
6,bias,0,1,1.3598100000089035,76
6,bias,1,1,1.5697950000027197,77
6,bias,0,1,0.7416250000093132,78
6,bias,1,1,0.7092050000065938,79
6,bias,0,1,0.6426649999925866,80
6,bias,0,1,1.0383549999976531,81
6,bias,1,1,0.6722149999989196,82
6,bias,1,1,0.6351050000078976,83
6,bias,0,1,1.329219999998808,84
6,bias,1,1,0.5096799999875948,85
6,bias,0,1,0.5547150000054389,86
6,bias,0,0,0.24631000000238415,87
6,bias,1,1,0.7618349999971687,88
6,bias,1,1,1.9869550000010057,89
6,bias,0,1,2.031484999999404,90
6,bias,1,1,0.3687250000080094,91
6,bias,1,1,0.2104499999983236,92
6,bias,1,0,1.003745000009425,93
6,bias,0,1,0.8924250000128523,94
6,bias,1,1,0.6354299999950453,95
6,bias,0,1,0.6671300000017509,96
6,no_bias,1,1,3.3895699999993667,49
6,no_bias,0,1,0.5942950000017881,50
6,no_bias,1,1,0.9331150000067427,51
6,no_bias,1,1,0.8409600000008941,52
6,no_bias,1,1,1.098144999996759,53
6,no_bias,0,1,7.6461299999943,54
6,no_bias,0,0,0.7366749999923632,55
6,no_bias,1,1,0.5090150000033901,56
6,no_bias,0,1,0.9560499999932944,57
6,no_bias,0,1,1.4091137500000186,58
6,no_bias,0,1,1.5645150000052528,59
6,no_bias,0,1,1.8549000000059608,60
6,no_bias,0,1,0.7068600000059232,61
6,no_bias,1,1,0.6415149999959394,62
6,no_bias,0,1,0.8881600000029429,63
6,no_bias,0,1,0.5620099999941885,64
6,no_bias,0,1,0.7407300000051037,65
6,no_bias,1,1,0.7837149999979883,66
6,no_bias,1,1,0.6966349999997765,67
6,no_bias,1,1,0.7216199999963865,68
6,no_bias,1,1,0.9572500000074504,69
6,no_bias,1,0,0.1599350000033155,70
6,no_bias,1,0,0.6027549999998882,71
6,no_bias,0,1,1.1545899999905378,72
6,no_bias,0,1,0.5528049999987706,73
6,no_bias,0,1,1.0504349999967966,74
6,no_bias,1,1,0.7402550000110641,75
6,no_bias,0,1,0.9269999999962748,76
6,no_bias,1,0,1.1570849999990314,77
6,no_bias,1,1,0.6294150000037625,78
6,no_bias,0,1,0.7127549999998882,79
6,no_bias,1,1,0.8882500000037253,80
6,no_bias,1,1,0.7621599999982863,81
6,no_bias,1,1,1.6576599999973551,82
6,no_bias,0,1,0.6045850000083447,83
6,no_bias,0,1,0.6637350000096485,84
6,no_bias,0,1,0.8117749999947846,85
6,no_bias,0,1,0.9736350000025704,86
6,no_bias,1,0,0.5650200000088662,87
6,no_bias,1,1,0.7795250000050291,88
6,no_bias,0,1,0.7586250000018626,89
6,no_bias,1,1,0.7753499999959022,90
6,no_bias,1,1,0.9839099999954924,91
6,no_bias,0,1,0.7681600000066683,92
6,no_bias,1,1,0.8423500000061467,93
6,no_bias,0,1,0.4799950000019744,94
6,no_bias,1,0,0.9930949999978764,95
6,no_bias,0,1,0.9009300000034272,96
6,bias,0,1,1.6752849999899044,97
6,bias,1,1,0.7302050000000745,98
6,bias,1,1,0.7488250000029802,99
6,bias,1,1,0.5365900000035763,100
6,bias,0,1,0.7442799999993295,101
6,bias,1,1,0.5634549999954179,102
6,bias,0,1,1.065849999998696,103
6,bias,0,1,0.6808549999985843,104
6,bias,1,1,0.8606500000031665,105
6,bias,1,1,1.7030099999979138,106
6,bias,1,1,0.931624999997206,107
6,bias,1,1,1.4784099999964235,108
6,bias,0,1,0.8712950000036508,109
6,bias,0,1,0.6712050000056624,110
6,bias,0,1,1.1136649999972432,111
6,bias,0,1,1.068710000006482,112
6,bias,1,1,1.2927950000017878,113
6,bias,1,1,1.336875000008382,114
6,bias,0,1,1.1699050000030546,115
6,bias,1,1,0.8445500000091269,116
6,bias,0,1,1.0479699999997392,117
6,bias,0,1,1.45615500000678,118
6,bias,1,1,1.738274999995716,119
6,bias,0,1,2.049739999987185,120
6,no_bias,0,1,2.462060000005178,97
6,no_bias,0,1,3.0427349999947473,98
6,no_bias,1,1,1.6150500000081955,99
6,no_bias,1,1,0.9393299999944864,100
6,no_bias,1,1,0.6282849999992177,101
6,no_bias,1,0,1.7380600000033155,102
6,no_bias,0,1,0.8320499999970198,103
6,no_bias,1,0,1.2030950000043958,104
6,no_bias,1,0,0.8321750000035391,105
6,no_bias,1,0,0.6471900000032037,106
6,no_bias,0,1,0.6615299999974668,107
6,no_bias,0,1,0.7385099999960512,108
6,no_bias,1,1,0.6021899999901652,109
6,no_bias,0,1,1.1097799999993294,110
6,no_bias,0,1,0.6822499999981374,111
6,no_bias,1,1,0.6789350000033155,112
6,no_bias,1,1,1.1991450000060722,113
6,no_bias,0,1,0.6382900000028312,114
6,no_bias,0,1,0.41228000000398607,115
6,no_bias,0,1,0.6224050000011921,116
6,no_bias,1,0,0.6335900000119582,117
6,no_bias,0,1,0.11656500000413508,118
6,no_bias,1,0,0.46981500000413506,119
6,no_bias,0,1,0.5278350000008941,120
6,bias,0,1,1.6958999999919906,121
6,bias,0,1,1.500524999995716,122
6,bias,0,1,2.3441100000049917,123
6,bias,0,1,1.3819999999981374,124
6,bias,1,1,0.9749900000030176,125
6,bias,1,1,0.8845449999934062,126
6,bias,1,1,1.806485000007786,127
6,bias,1,1,1.4310899999979882,128
6,bias,1,0,1.29350500000827,129
6,bias,0,1,1.468665000007488,130
6,bias,1,1,0.7355950000053272,131
6,bias,0,1,0.8553200000030919,132
6,bias,0,1,1.750014999997802,133
6,bias,0,1,0.708089999999851,134
6,bias,1,1,0.760105000008829,135
6,bias,0,1,1.0129900000030176,136
6,bias,1,1,0.7486249999934808,137
6,bias,1,1,2.0656000000014902,138
6,bias,0,1,0.9821000000089408,139
6,bias,0,1,2.475969999999739,140
6,bias,1,1,2.054109999997541,141
6,bias,0,1,2.228125000008382,142
6,bias,1,1,1.033379999993369,143
6,bias,1,0,1.4833699999870733,144
6,no_bias,0,1,2.502309999995865,121
6,no_bias,1,1,0.6131100000049919,122
6,no_bias,0,1,1.2051050000013783,123
6,no_bias,1,1,0.13409500000160188,124
6,no_bias,0,1,0.5889299999978393,125
6,no_bias,1,1,0.6196049999995157,126
6,no_bias,0,1,1.025745000006631,127
6,no_bias,0,1,2.9430549999959768,128
6,no_bias,1,0,1.8366499999975785,129
6,no_bias,1,0,1.2771400000052529,130
6,no_bias,1,1,1.605804999998771,131
6,no_bias,0,1,2.730664999996312,132
6,no_bias,0,1,0.8218600000105798,133
6,no_bias,0,1,0.6674850000124425,134
6,no_bias,1,0,0.6861249999925494,135
6,no_bias,1,0,1.0713149999929592,136
6,no_bias,0,1,1.769670000009239,137
6,no_bias,1,0,0.6849599999981001,138
6,no_bias,0,1,0.6753400000017137,139
6,no_bias,1,1,0.6854450000105425,140
6,no_bias,0,1,0.78476500000339,141
6,no_bias,1,1,0.610159999997355,142
6,no_bias,0,1,0.8764949999889359,143
6,no_bias,1,0,0.6925399999888614,144
7,bias,0,1,0.8273999999761581,1
7,bias,1,1,0.626,2
7,bias,0,1,0.5087000000476837,3
7,bias,0,1,1.3757000000476836,4
7,bias,0,1,0.604,5
7,bias,1,0,0.42909999990463255,6
7,bias,0,0,1.4147999999523164,7
7,bias,1,1,0.4218999999761581,8
7,bias,0,0,0.5113999999761581,9
7,bias,1,1,0.7155,10
7,bias,1,1,0.5506000000238419,11
7,bias,0,1,0.381,12
7,bias,1,1,0.40560000002384183,13
7,bias,0,1,0.4401999999284744,14
7,bias,1,1,0.6617000000476837,15
7,bias,1,1,0.3507999999523163,16
7,bias,1,1,0.3697999999523162,17
7,bias,0,0,0.423,18
7,bias,1,1,0.3713000000715256,19
7,bias,1,1,0.48060000002384184,20
7,bias,0,1,0.3297999999523163,21
7,bias,0,1,0.5626000000238418,22
7,bias,1,1,0.37059999990463255,23
7,bias,0,1,0.40560000002384183,24
7,no_bias,0,1,1.2171999999284744,1
7,no_bias,1,1,0.23809999990463257,2
7,no_bias,0,1,0.2618000000715256,3
7,no_bias,1,1,0.2860999999046326,4
7,no_bias,0,1,0.4372000000476837,5
7,no_bias,0,1,0.1757000000476837,6
7,no_bias,0,1,0.34639999997615817,7
7,no_bias,1,1,0.178,8
7,no_bias,1,1,0.22340000009536745,9
7,no_bias,0,1,0.2644000000953674,10
7,no_bias,1,1,0.1,11
7,no_bias,1,1,0.2726000000238419,12
7,no_bias,0,1,0.3621999999284744,13
7,no_bias,0,0,0.5383000000715256,14
7,no_bias,0,1,0.3875,15
7,no_bias,1,1,0.46610000002384183,16
7,no_bias,0,1,0.46039999997615816,17
7,no_bias,0,1,0.638,18
7,no_bias,1,0,0.3483999999761581,19
7,no_bias,0,1,0.3676999999284744,20
7,no_bias,1,1,0.26070000004768373,21
7,no_bias,1,1,0.20409999990463257,22
7,no_bias,1,1,0.29510000002384185,23
7,no_bias,1,1,1.1107999999523166,24
7,bias,1,1,1.255100000023842,25
7,bias,1,1,0.35,26
7,bias,1,1,0.46839999997615817,27
7,bias,1,1,0.4603000000715255,28
7,bias,0,1,0.28319999992847444,29
7,bias,1,1,0.2757000000476837,30
7,bias,0,1,1.0962000000476837,31
7,bias,0,1,1.0628000000715256,32
7,bias,0,1,0.5182000000476837,33
7,bias,1,1,0.333,34
7,bias,0,1,0.7063999999761581,35
7,bias,0,1,0.4243999999761581,36
7,bias,0,1,0.76,37
7,bias,0,0,0.7081000000238419,38
7,bias,1,1,0.2716000000238419,39
7,bias,1,1,0.3947999999523163,40
7,bias,0,1,0.3293000000715256,41
7,bias,0,1,0.39839999997615816,42
7,bias,1,1,0.4893999999761582,43
7,bias,0,0,0.7301000000238419,44
7,bias,0,1,0.32010000002384187,45
7,bias,1,1,0.37239999997615814,46
7,bias,1,1,0.5637999999523163,47
7,bias,1,0,0.41960000002384185,48
7,no_bias,1,0,2.694099999904633,25
7,no_bias,0,1,0.5197999999523163,26
7,no_bias,0,1,0.7615999999046326,27
7,no_bias,0,1,0.4556000000238419,28
7,no_bias,1,1,0.5831999999284744,29
7,no_bias,0,1,1.2432000000476835,30
7,no_bias,1,1,2.332600000023842,31
7,no_bias,0,1,0.856,32
7,no_bias,1,1,0.36379999995231627,33
7,no_bias,0,0,0.605,34
7,no_bias,1,1,0.32819999992847443,35
7,no_bias,1,1,0.5948999999761582,36
7,no_bias,0,0,0.5582000000476837,37
7,no_bias,1,0,0.2611999999284744,38
7,no_bias,0,1,0.7170999999046326,39
7,no_bias,0,0,1.0765,40
7,no_bias,0,1,0.3012000000476837,41
7,no_bias,1,1,0.3808000000715256,42
7,no_bias,1,1,0.5145,43
7,no_bias,1,1,0.12560000002384186,44
7,no_bias,0,1,0.4255,45
7,no_bias,1,1,0.2756000000238419,46
7,no_bias,1,1,0.22110000002384184,47
7,no_bias,0,1,0.20939999997615816,48
7,bias,1,1,3.5955,49
7,bias,1,1,0.34960000002384184,50
7,bias,1,1,0.3178000000715256,51
7,bias,0,1,0.7937000000476837,52
7,bias,1,1,0.346,53
7,bias,1,1,0.29380000007152557,54
7,bias,0,1,0.5941000000238419,55
7,bias,0,1,0.6545,56
7,bias,0,1,0.4082000000476837,57
7,bias,1,1,0.31720000004768373,58
7,bias,0,1,0.5697000000476837,59
7,bias,0,0,0.6323000000715255,60
7,bias,1,1,0.4377000000476837,61
7,bias,0,1,1.949899999976158,62
7,bias,1,1,0.2858999999761581,63
7,bias,0,0,0.4471000000238418,64
7,bias,1,1,0.5523000000715256,65
7,bias,0,1,0.339,66
7,bias,1,1,0.3395,67
7,bias,0,1,0.5855,68
7,bias,1,1,0.13539999997615815,69
7,bias,1,1,0.2852999999523163,70
7,bias,0,1,0.5231999999284744,71
7,bias,0,1,0.7282999999523163,72
7,no_bias,1,1,0.3558999999761581,49
7,no_bias,0,1,0.433,50
7,no_bias,0,1,0.8298999999761582,51
7,no_bias,0,1,0.4312000000476837,52
7,no_bias,0,1,0.8415,53
7,no_bias,0,1,0.5206000000238419,54
7,no_bias,1,1,0.34689999997615817,55
7,no_bias,0,1,0.8716999999284745,56
7,no_bias,1,1,0.263,57
7,no_bias,0,0,0.8477000000476838,58
7,no_bias,0,0,0.6698999999761581,59
7,no_bias,0,1,0.49060000002384185,60
7,no_bias,1,1,0.29079999995231626,61
7,no_bias,1,1,0.4782000000476837,62
7,no_bias,1,1,0.49029999995231627,63
7,no_bias,0,0,0.45389999997615815,64
7,no_bias,1,1,0.4926999999284744,65
7,no_bias,1,0,0.3148000000715256,66
7,no_bias,1,1,0.2827999999523163,67
7,no_bias,1,1,0.26969999992847443,68
7,no_bias,1,1,0.5231000000238418,69
7,no_bias,1,0,0.6161999999284744,70
7,no_bias,0,1,0.5163999999761582,71
7,no_bias,0,1,1.031,72
7,bias,1,1,0.7117999999523162,73
7,bias,1,1,0.35960000002384185,74
7,bias,0,1,0.5393999999761582,75
7,bias,0,1,0.5596000000238418,76
7,bias,0,1,0.5912999999523163,77
7,bias,1,1,0.25359999990463256,78
7,bias,1,1,0.8428999999761582,79
7,bias,0,1,0.43660000002384186,80
7,bias,0,0,0.4367999999523163,81
7,bias,0,1,0.5096000000238419,82
7,bias,1,0,1.132100000023842,83
7,bias,0,1,0.45620000004768374,84
7,bias,0,1,0.557,85
7,bias,1,1,0.34239999997615816,86
7,bias,1,1,0.3697999999523162,87
7,bias,1,1,0.35660000002384185,88
7,bias,0,0,0.5453999999761582,89
7,bias,1,1,0.2817999999523163,90
7,bias,1,1,0.29160000002384184,91
7,bias,1,1,0.5678000000715255,92
7,bias,0,1,0.4863999999761581,93
7,bias,0,1,0.4422999999523163,94
7,bias,0,1,0.5468000000715256,95
7,bias,1,1,0.686,96
7,bias,1,1,0.35210000002384184,97
7,bias,1,1,0.35479999995231626,98
7,bias,0,1,0.349,99
7,bias,1,1,0.2032999999523163,100
7,bias,0,1,0.37189999997615814,101
7,bias,1,1,0.3835,102
7,bias,1,1,0.3623999999761581,103
7,bias,0,1,0.5047000000476837,104
7,bias,1,1,0.2860999999046326,105
7,bias,1,1,0.1755,106
7,bias,1,1,0.2732000000476837,107
7,bias,1,1,0.33930000007152555,108
7,bias,1,1,0.185,109
7,bias,0,0,0.3623999999761581,110
7,bias,1,1,0.1327000000476837,111
7,bias,1,1,0.31239999997615814,112
7,bias,0,1,0.45989999997615816,113
7,bias,0,1,0.43839999997615814,114
7,bias,0,1,0.5636000000238418,115
7,bias,0,0,0.6216000000238419,116
7,bias,0,1,0.29480000007152557,117
7,bias,0,1,0.5551000000238419,118
7,bias,0,1,0.425,119
7,bias,0,1,0.4004000000953674,120
7,no_bias,0,1,1.2342000000476836,73
7,no_bias,0,1,0.31439999997615814,74
7,no_bias,0,1,0.3543999999761581,75
7,no_bias,0,1,0.49510000002384186,76
7,no_bias,1,1,0.3407999999523163,77
7,no_bias,0,1,0.44689999997615815,78
7,no_bias,0,1,0.5668999999761581,79
7,no_bias,1,1,0.5627999999523163,80
7,no_bias,1,1,0.33469999992847443,81
7,no_bias,1,1,0.2627999999523163,82
7,no_bias,1,1,0.19790000009536743,83
7,no_bias,1,1,0.38089999997615814,84
7,no_bias,0,0,0.6007000000476838,85
7,no_bias,0,1,0.378,86
7,no_bias,0,0,0.473,87
7,no_bias,1,1,0.08879999995231629,88
7,no_bias,1,1,0.2802000000476837,89
7,no_bias,1,1,0.3066999999284744,90
7,no_bias,0,1,0.5174000000953675,91
7,no_bias,1,1,0.3123000000715256,92
7,no_bias,0,1,0.4795999999046326,93
7,no_bias,0,1,0.35360000002384184,94
7,no_bias,1,0,0.6296000000238419,95
7,no_bias,1,1,0.517,96
7,no_bias,1,1,0.8443000000715256,97
7,no_bias,0,1,0.3465999999046326,98
7,no_bias,1,1,0.3216999999284744,99
7,no_bias,1,1,0.21070000004768372,100
7,no_bias,0,1,0.43260000002384186,101
7,no_bias,1,1,0.2148000000715256,102
7,no_bias,1,1,0.31970000004768373,103
7,no_bias,1,1,0.22760000002384184,104
7,no_bias,1,1,0.31660000002384187,105
7,no_bias,1,1,0.30229999995231627,106
7,no_bias,0,1,0.3687000000476837,107
7,no_bias,0,1,0.3845,108
7,no_bias,1,1,0.2158000000715256,109
7,no_bias,0,0,0.5807999999523162,110
7,no_bias,1,1,0.5024000000953674,111
7,no_bias,0,1,0.5026000000238419,112
7,no_bias,1,0,0.716,113
7,no_bias,0,1,0.6035,114
7,no_bias,0,1,0.4795,115
7,no_bias,0,1,0.8595,116
7,no_bias,0,1,0.6795999999046326,117
7,no_bias,1,1,0.3585,118
7,no_bias,0,1,1.092600000023842,119
7,no_bias,0,1,0.5425,120
7,no_bias,1,1,0.11180000007152556,121
7,no_bias,1,1,0.4846999999284744,122
7,no_bias,1,1,0.335,123
7,no_bias,0,1,0.6655,124
7,no_bias,0,1,0.6686000000238419,125
7,no_bias,1,1,0.34580000007152556,126
7,no_bias,1,1,0.37310000002384186,127
7,no_bias,1,1,0.06789999997615814,128
7,no_bias,0,1,0.35260000002384184,129
7,no_bias,1,1,0.27280000007152555,130
7,no_bias,0,1,0.3125,131
7,no_bias,0,1,0.3936999999284744,132
7,no_bias,1,1,0.39320000004768374,133
7,no_bias,0,1,0.42960000002384185,134
7,no_bias,0,1,0.3296000000238419,135
7,no_bias,1,1,0.06030000007152558,136
7,no_bias,1,1,0.23289999997615815,137
7,no_bias,0,1,0.3215,138
7,no_bias,0,0,0.7121000000238419,139
7,no_bias,1,1,0.282,140
7,no_bias,0,1,0.6318999999761581,141
7,no_bias,1,1,0.2878999999761581,142
7,no_bias,0,1,0.3656999999284744,143
7,no_bias,0,0,0.5212000000476837,144
7,bias,0,1,1.3227000000476834,121
7,bias,0,1,0.43,122
7,bias,0,0,0.777,123
7,bias,1,1,0.5092000000476837,124
7,bias,0,1,0.37240000009536744,125
7,bias,0,1,0.3987000000476837,126
7,bias,1,1,0.15390000009536745,127
7,bias,0,1,0.6028000000715256,128
7,bias,1,1,0.3417000000476837,129
7,bias,0,1,0.3167000000476837,130
7,bias,1,1,0.25470000004768373,131
7,bias,1,1,0.30079999995231627,132
7,bias,1,1,0.4251999999284744,133
7,bias,1,1,0.24369999992847444,134
7,bias,0,0,0.6151000000238419,135
7,bias,0,1,0.3475,136
7,bias,1,1,0.3147000000476837,137
7,bias,1,1,0.468,138
7,bias,1,1,0.30460000002384185,139
7,bias,0,1,0.41310000002384184,140
7,bias,0,1,0.5315,141
7,bias,0,1,0.5081999999284744,142
7,bias,1,1,0.21689999997615816,143
7,bias,1,1,0.3876000000238419,144
9,bias,1,1,1.4692999999523164,1
9,bias,0,1,1.5748999998569488,2
9,bias,1,1,1.220300000190735,3
9,bias,0,0,1.9193999998569489,4
9,bias,0,1,0.30779999995231627,5
9,bias,1,0,0.4605,6
9,bias,1,1,0.85,7
9,bias,0,1,1.0759000000953671,8
9,bias,0,1,0.7494000000953674,9
9,bias,0,1,0.4978999998569488,10
9,bias,1,0,0.7668000001907349,11
9,bias,1,0,0.3984000000953674,12
9,bias,1,1,0.8916000001430512,13
9,bias,0,1,0.7742999999523162,14
9,bias,0,1,0.40719999980926513,15
9,bias,0,1,0.5017999999523163,16
9,bias,1,0,0.11029999995231628,17
9,bias,1,1,0.7402999999523163,18
9,bias,0,1,0.6797999999523163,19
9,bias,1,0,0.571,20
9,bias,1,0,0.7046999998092651,21
9,bias,1,1,0.9823999998569488,22
9,bias,0,1,0.7114000000953674,23
9,bias,0,1,0.36840000009536744,24
9,no_bias,1,1,1.1018999998569488,1
9,no_bias,0,1,1.1732999999523166,2
9,no_bias,1,0,0.8490999999046326,3
9,no_bias,0,1,0.8067000000476837,4
9,no_bias,1,0,0.8331999998092652,5
9,no_bias,0,1,0.5515,6
9,no_bias,1,0,0.57,7
9,no_bias,0,1,0.39020000004768374,8
9,no_bias,1,0,0.6181000001430511,9
9,no_bias,0,1,0.35119999980926514,10
9,no_bias,1,0,0.46960000014305114,11
9,no_bias,1,1,0.7556000001430512,12
9,no_bias,0,1,0.5687000000476837,13
9,no_bias,0,1,0.564,14
9,no_bias,0,1,0.7457999999523163,15
9,no_bias,0,1,0.408,16
9,no_bias,0,1,0.5177999999523163,17
9,no_bias,0,1,0.5227000000476837,18
9,no_bias,1,1,0.9737000000476836,19
9,no_bias,1,1,0.6607999999523163,20
9,no_bias,1,0,0.675,21
9,no_bias,0,1,0.5103999998569488,22
9,no_bias,1,1,0.6717000000476837,23
9,no_bias,1,0,0.9521000001430512,24
9,bias,1,0,0.9034000000953676,25
9,bias,0,1,0.6955,26
9,bias,1,0,0.7065999999046325,27
9,bias,0,1,0.5478999998569488,28
9,bias,1,0,0.6462999999523162,29
9,bias,0,1,0.5091000001430511,30
9,bias,1,0,0.5767999999523162,31
9,bias,0,1,0.4707999999523163,32
9,bias,1,0,0.6297999999523163,33
9,bias,0,1,0.465,34
9,bias,1,0,0.4610999999046326,35
9,bias,1,0,0.6074000000953674,36
9,bias,0,1,0.43709999990463255,37
9,bias,0,1,0.3942999999523163,38
9,bias,0,1,0.5906000001430511,39
9,bias,1,0,0.3748999998569488,40
9,bias,1,0,0.8834000000953675,41
9,bias,1,0,0.38609999990463256,42
9,bias,0,1,0.3853000001907349,43
9,bias,1,0,0.4291000001430512,44
9,bias,0,1,0.4917000000476837,45
9,bias,0,1,0.3813000001907349,46
9,bias,1,0,0.4037000000476837,47
9,bias,0,1,0.5457000000476837,48
9,bias,1,1,1.1422000000476835,49
9,bias,1,1,0.5722999999523163,50
9,bias,0,1,0.6345,51
9,bias,0,1,0.439,52
9,bias,0,1,0.4507999999523163,53
9,bias,1,0,1.5827999999523166,54
9,bias,1,0,0.5721999998092652,55
9,bias,0,1,0.5503000001907349,56
9,bias,0,1,0.4565,57
9,bias,0,1,0.5216000001430512,58
9,bias,0,1,0.4405,59
9,bias,0,1,0.4217000000476837,60
9,bias,1,1,0.6273999998569488,61
9,bias,0,1,0.5615999999046326,62
9,bias,1,0,0.5815,63
9,bias,1,0,0.4175999999046326,64
9,bias,1,0,0.6869000000953674,65
9,bias,1,1,1.1542999999523165,66
9,bias,0,1,0.732,67
9,bias,1,0,0.8295999999046326,68
9,bias,1,1,0.7797999999523163,69
9,bias,0,1,0.6376000001430512,70
9,bias,0,1,0.5925,71
9,bias,1,0,0.7272000000476837,72
9,no_bias,1,1,0.9429000000953676,25
9,no_bias,1,1,0.8946000001430512,26
9,no_bias,0,1,1.1082999999523164,27
9,no_bias,1,1,0.6590999999046325,28
9,no_bias,1,1,0.5566000001430511,29
9,no_bias,0,0,0.4777000000476837,30
9,no_bias,1,1,0.4301000001430512,31
9,no_bias,0,0,0.6516000001430512,32
9,no_bias,1,1,0.7017000000476837,33
9,no_bias,0,1,0.6672999999523163,34
9,no_bias,0,0,0.6309000000953674,35
9,no_bias,0,1,0.5317000000476837,36
9,no_bias,1,1,0.7342000000476837,37
9,no_bias,0,1,0.7281000001430511,38
9,no_bias,1,0,0.6502000000476837,39
9,no_bias,0,1,0.6362999999523162,40
9,no_bias,0,1,0.7723000001907349,41
9,no_bias,1,1,0.5165,42
9,no_bias,0,1,0.6420999999046326,43
9,no_bias,0,1,0.9045999999046326,44
9,no_bias,1,0,0.6193999998569488,45
9,no_bias,1,1,0.6492000000476837,46
9,no_bias,0,0,2.6037000000476835,47
9,no_bias,1,1,0.43209999990463255,48
9,no_bias,1,1,4.4975,49
9,no_bias,1,1,1.2692000000476835,50
9,no_bias,0,1,0.8501000001430511,51
9,no_bias,0,1,1.031,52
9,no_bias,0,1,0.97,53
9,no_bias,1,1,0.5975,54
9,no_bias,1,1,0.6562000000476838,55
9,no_bias,1,1,0.6985,56
9,no_bias,1,1,0.6213999998569488,57
9,no_bias,0,1,0.6944000000953674,58
9,no_bias,0,1,0.742,59
9,no_bias,0,1,0.8615,60
9,no_bias,1,0,0.6112000000476837,61
9,no_bias,0,1,0.7450999999046326,62
9,no_bias,0,1,0.3662000000476837,63
9,no_bias,1,0,0.9498999998569488,64
9,no_bias,0,1,0.5972999999523163,65
9,no_bias,0,1,0.5396000001430511,66
9,no_bias,0,1,0.6111999998092651,67
9,no_bias,1,1,0.7371999998092651,68
9,no_bias,0,1,0.4650999999046326,69
9,no_bias,1,1,0.7410999999046326,70
9,no_bias,1,0,0.5488000001907348,71
9,no_bias,1,1,0.7410999999046326,72
9,bias,0,1,1.3119000000953671,73
9,bias,1,0,1.0221000001430511,74
9,bias,0,1,0.38040000009536745,75
9,bias,0,1,0.48229999995231626,76
9,bias,0,1,0.5256999998092652,77
9,bias,0,1,0.32320000004768373,78
9,bias,1,1,1.0667999999523166,79
9,bias,0,1,0.5179000000953674,80
9,bias,1,1,1.2042000000476836,81
9,bias,1,1,0.695,82
9,bias,0,0,0.926,83
9,bias,1,1,0.6608999998569488,84
9,bias,0,1,0.8400999999046326,85
9,bias,1,1,0.6533999998569489,86
9,bias,1,1,0.9981999998092652,87
9,bias,0,1,0.7345,88
9,bias,1,1,0.8274000000953674,89
9,bias,1,1,0.7281999998092651,90
9,bias,0,1,0.8665,91
9,bias,1,1,0.7106000001430511,92
9,bias,0,1,0.8785,93
9,bias,1,1,0.4085,94
9,bias,1,1,0.5908999998569489,95
9,bias,0,1,0.6755,96
9,no_bias,1,0,0.9785,73
9,no_bias,1,1,0.9586000001430512,74
9,no_bias,0,1,0.6389000000953674,75
9,no_bias,0,1,0.3807000000476838,76
9,no_bias,0,1,0.4453999998569488,77
9,no_bias,1,0,0.6528999998569488,78
9,no_bias,0,1,0.48389999985694887,79
9,no_bias,0,1,0.4397999999523163,80
9,no_bias,0,1,0.4356000001430512,81
9,no_bias,0,1,0.3967999999523163,82
9,no_bias,0,1,0.427,83
9,no_bias,1,1,0.7289000000953675,84
9,no_bias,1,1,0.5105999999046326,85
9,no_bias,1,1,0.5577000000476837,86
9,no_bias,1,0,0.408,87
9,no_bias,1,1,0.6160999999046326,88
9,no_bias,0,1,0.46569999980926513,89
9,no_bias,1,1,1.084,90
9,no_bias,1,1,0.7267999999523163,91
9,no_bias,1,1,0.5750999999046326,92
9,no_bias,0,1,0.6215,93
9,no_bias,1,0,0.6594000000953675,94
9,no_bias,0,1,0.447,95
9,no_bias,0,1,0.7889000000953674,96
9,no_bias,0,1,0.667,97
9,no_bias,1,1,0.4418999998569488,98
9,no_bias,0,1,0.4598999998569489,99
9,no_bias,0,1,0.401,100
9,no_bias,1,1,0.6767999999523163,101
9,no_bias,0,1,0.5842000000476837,102
9,no_bias,0,1,0.7807999999523163,103
9,no_bias,1,1,0.9137999999523164,104
9,no_bias,1,1,0.5167999999523163,105
9,no_bias,0,0,0.7482000000476837,106
9,no_bias,1,1,0.6497999999523163,107
9,no_bias,0,0,0.5678999998569488,108
9,no_bias,1,1,0.5205999999046326,109
9,no_bias,0,1,0.5752999999523163,110
9,no_bias,1,1,0.37440000009536745,111
9,no_bias,0,1,0.5625,112
9,no_bias,1,1,0.7851999998092651,113
9,no_bias,1,1,0.7295,114
9,no_bias,0,1,0.5900999999046326,115
9,no_bias,0,1,0.5277000000476837,116
9,no_bias,1,1,0.7471000001430511,117
9,no_bias,0,1,0.5041999998092651,118
9,no_bias,1,1,0.4600999999046326,119
9,no_bias,1,1,0.48329999995231626,120
9,bias,1,1,0.7332999999523163,97
9,bias,1,1,0.388,98
9,bias,0,1,2.1847999999523164,99
9,bias,0,1,0.7347000000476838,100
9,bias,1,1,0.9976000001430512,101
9,bias,0,1,1.3542999999523164,102
9,bias,0,1,0.40669999980926513,103
9,bias,0,1,0.5770999999046326,104
9,bias,0,1,0.6647999999523163,105
9,bias,0,1,0.35490000009536743,106
9,bias,0,1,0.5437999999523163,107
9,bias,1,1,0.85,108
9,bias,0,1,0.3653999998569489,109
9,bias,1,1,0.8292000000476837,110
9,bias,1,1,0.6723999998569489,111
9,bias,0,1,0.6515,112
9,bias,0,1,0.5442000000476838,113
9,bias,1,1,0.8952000000476837,114
9,bias,0,1,0.6681000001430512,115
9,bias,1,1,0.8302000000476837,116
9,bias,1,1,1.7513000001907348,117
9,bias,1,1,0.5004000000953674,118
9,bias,1,1,0.3625,119
9,bias,1,1,0.8910999999046326,120
9,no_bias,1,1,0.6585999999046326,121
9,no_bias,0,1,0.8506999998092651,122
9,no_bias,1,1,0.5822000000476837,123
9,no_bias,0,1,0.8615,124
9,no_bias,0,1,0.837,125
9,no_bias,0,1,0.579,126
9,no_bias,1,1,0.7497000000476837,127
9,no_bias,0,1,0.4139000000953674,128
9,no_bias,0,1,0.5415,129
9,no_bias,1,1,0.8435999999046325,130
9,no_bias,0,1,0.5865,131
9,no_bias,1,1,0.573,132
9,no_bias,0,1,1.2619000000953675,133
9,no_bias,1,1,3.374800000190735,134
9,no_bias,1,1,0.5801000001430512,135
9,no_bias,1,0,0.6989000000953675,136
9,no_bias,1,1,0.5977000000476838,137
9,no_bias,0,1,0.6663000001907349,138
9,no_bias,1,1,1.0300999999046323,139
9,no_bias,1,1,0.6077000000476838,140
9,no_bias,0,0,1.4630999999046326,141
9,no_bias,0,1,0.7099000000953675,142
9,no_bias,1,1,1.1655,143
9,no_bias,0,1,1.3758999998569488,144
9,bias,0,1,1.8784000000953671,121
9,bias,1,0,1.4293999998569489,122
9,bias,0,1,0.48329999995231626,123
9,bias,0,1,0.565,124
9,bias,0,1,0.33109999990463257,125
9,bias,1,0,0.5035,126
9,bias,1,0,0.6350999999046326,127
9,bias,0,1,0.48229999995231626,128
9,bias,1,0,0.3848999998569488,129
9,bias,0,1,0.5442999999523163,130
9,bias,0,1,0.5619000000953674,131
9,bias,1,0,0.4312000000476837,132
9,bias,0,1,0.3777000000476837,133
9,bias,1,0,0.6726000001430511,134
9,bias,1,0,0.5372999999523163,135
9,bias,0,1,0.4697000000476837,136
9,bias,1,0,0.6357999999523163,137
9,bias,1,0,1.661800000190735,138
9,bias,0,1,0.5846000001430511,139
9,bias,1,0,0.4167000000476837,140
9,bias,0,1,0.4845,141
9,bias,1,0,0.3991999998092651,142
9,bias,0,1,0.412,143
9,bias,1,0,0.4902000000476837,144
12,no_bias,1,0,5.012699999928475,1
12,no_bias,0,0,0.5132999999523162,2
12,no_bias,0,1,0.34510000002384184,3
12,no_bias,0,0,0.287,4
12,no_bias,1,1,0.6840999999046325,5
12,no_bias,1,1,0.5471000000238418,6
12,no_bias,1,0,0.37360000002384186,7
12,no_bias,0,1,0.37839999997615814,8
12,no_bias,1,1,0.3315,9
12,no_bias,0,1,0.5381000000238418,10
12,no_bias,1,1,0.44939999997615815,11
12,no_bias,0,1,0.6143999999761581,12
12,no_bias,0,0,0.09620000004768373,13
12,no_bias,0,0,0.39380000007152555,14
12,no_bias,0,0,0.4567999999523163,15
12,no_bias,0,0,0.3281000000238419,16
12,no_bias,1,1,0.33489999997615816,17
12,no_bias,1,0,0.8713000000715255,18
12,no_bias,1,1,0.3287999999523163,19
12,no_bias,1,1,0.1565,20
12,no_bias,0,1,0.3143000000715256,21
12,no_bias,1,1,0.3335,22
12,no_bias,1,0,0.369,23
12,no_bias,0,0,0.27889999997615816,24
12,bias,0,0,1.4711999999284744,1
12,bias,0,0,0.3142000000476837,2
12,bias,0,1,0.33889999997615816,3
12,bias,1,1,0.27689999997615816,4
12,bias,0,0,0.13429999995231628,5
12,bias,0,0,0.43490000009536744,6
12,bias,1,1,0.2752000000476837,7
12,bias,1,1,0.314,8
12,bias,1,1,0.3361000000238419,9
12,bias,0,0,0.06910000002384185,10
12,bias,0,1,0.23489999997615815,11
12,bias,0,0,0.3758000000715256,12
12,bias,1,0,0.03119999992847442,13
12,bias,0,0,0.2958999999761581,14
12,bias,1,1,0.34139999997615816,15
12,bias,1,1,0.3187999999523163,16
12,bias,0,0,0.31560000002384186,17
12,bias,1,1,0.1875,18
12,bias,1,1,0.2686000000238419,19
12,bias,1,1,0.3325,20
12,bias,0,1,0.35619999992847445,21
12,bias,0,1,0.3196999999284744,22
12,bias,1,1,0.09419999992847444,23
12,bias,1,1,0.32139999997615815,24
12,bias,1,1,0.9297999999523164,25
12,bias,0,0,0.3286000000238419,26
12,bias,1,1,1.400899999976158,27
12,bias,0,0,0.3766999999284744,28
12,bias,1,1,0.31689999997615814,29
12,bias,1,1,0.3771999999284744,30
12,bias,1,1,0.3256000000238419,31
12,bias,1,1,0.337,32
12,bias,0,1,0.3712000000476837,33
12,bias,0,1,0.5362999999523163,34
12,bias,0,1,0.3258000000715256,35
12,bias,1,1,0.15689999997615814,36
12,bias,1,1,0.404,37
12,bias,0,1,2.8715,38
12,bias,0,0,0.40189999997615816,39
12,bias,1,1,0.3672999999523162,40
12,bias,0,0,0.6295,41
12,bias,1,1,0.40439999997615816,42
12,bias,0,1,0.6045999999046325,43
12,bias,1,1,0.3465,44
12,bias,0,1,0.3792000000476837,45
12,bias,0,1,0.3846999999284744,46
12,bias,0,0,0.3417000000476837,47
12,bias,1,1,0.316,48
12,no_bias,0,0,1.0605,25
12,no_bias,1,1,0.34130000007152556,26
12,no_bias,1,0,0.241,27
12,no_bias,0,0,0.4566000000238419,28
12,no_bias,0,1,0.5161000000238418,29
12,no_bias,0,1,0.349,30
12,no_bias,1,1,0.481,31
12,no_bias,0,1,0.647,32
12,no_bias,1,1,0.49009999990463254,33
12,no_bias,1,0,1.1118999999761578,34
12,no_bias,0,1,0.4597999999523163,35
12,no_bias,1,1,0.32090000009536745,36
12,no_bias,1,1,0.377,37
12,no_bias,0,1,0.4011000000238419,38
12,no_bias,0,1,0.32889999997615815,39
12,no_bias,1,0,0.56,40
12,no_bias,1,0,0.45570000004768374,41
12,no_bias,1,0,0.32389999997615815,42
12,no_bias,0,1,0.3817000000476838,43
12,no_bias,1,0,0.3793000000715256,44
12,no_bias,0,1,0.4246999999284744,45
12,no_bias,1,0,0.35379999995231626,46
12,no_bias,0,1,0.36329999995231627,47
12,no_bias,0,1,0.327,48
12,bias,1,1,0.7063999999761581,49
12,bias,1,0,0.5756999999284744,50
12,bias,0,1,0.5148000000715256,51
12,bias,1,0,0.4712000000476837,52
12,bias,1,1,0.5617000000476837,53
12,bias,1,0,0.42,54
12,bias,1,0,0.37989999997615814,55
12,bias,0,0,0.364,56
12,bias,0,1,0.708,57
12,bias,1,1,0.37689999997615814,58
12,bias,0,1,0.4046999999284744,59
12,bias,1,1,0.5572000000476837,60
12,bias,0,1,0.6543999999761582,61
12,bias,1,0,0.5333999999761582,62
12,bias,1,1,0.4232000000476837,63
12,bias,0,1,0.31610000002384187,64
12,bias,0,0,0.42160000002384185,65
12,bias,0,0,0.5938999999761582,66
12,bias,1,0,0.6217000000476837,67
12,bias,0,0,0.5333000000715256,68
12,bias,0,1,1.0845999999046323,69
12,bias,1,0,0.2905,70
12,bias,0,0,0.4187000000476837,71
12,bias,0,0,0.7398999999761582,72
12,no_bias,0,1,2.1313000000715254,49
12,no_bias,0,1,0.346,50
12,no_bias,0,0,0.4566000000238419,51
12,no_bias,1,1,0.19530000007152556,52
12,no_bias,0,0,0.32969999992847443,53
12,no_bias,1,0,0.30579999995231627,54
12,no_bias,0,1,0.3112999999523163,55
12,no_bias,0,1,0.2583000000715256,56
12,no_bias,1,1,0.2858999999761581,57
12,no_bias,1,0,0.08860000002384186,58
12,no_bias,1,1,0.14739999997615813,59
12,no_bias,0,1,0.39839999997615816,60
12,no_bias,1,1,0.35269999992847445,61
12,no_bias,0,1,0.08030000007152557,62
12,no_bias,1,0,0.28489999997615817,63
12,no_bias,0,1,0.6663999999761582,64
12,no_bias,1,0,0.35579999995231626,65
12,no_bias,0,0,0.2731000000238419,66
12,no_bias,1,1,0.335,67
12,no_bias,0,1,0.29279999995231626,68
12,no_bias,0,1,0.27070000004768374,69
12,no_bias,1,0,0.3697999999523162,70
12,no_bias,1,1,0.3906000000238419,71
12,no_bias,1,1,0.13360000002384187,72
12,no_bias,0,0,0.18670000004768372,73
12,no_bias,0,0,0.4643000000715255,74
12,no_bias,0,0,0.3417999999523163,75
12,no_bias,0,0,0.6737999999523163,76
12,no_bias,1,0,0.7731999999284744,77
12,no_bias,1,1,0.4697999999523163,78
12,no_bias,1,1,0.3865,79
12,no_bias,1,1,0.3288000000715256,80
12,no_bias,1,1,0.3,81
12,no_bias,1,1,0.22189999997615817,82
12,no_bias,1,1,0.28189999997615817,83
12,no_bias,1,1,0.27589999997615816,84
12,no_bias,1,1,0.11860000002384186,85
12,no_bias,0,1,0.537,86
12,no_bias,0,1,0.30290000009536744,87
12,no_bias,0,0,0.4005,88
12,no_bias,0,0,0.32959999990463257,89
12,no_bias,0,1,0.24929999995231628,90
12,no_bias,0,0,0.4272000000476837,91
12,no_bias,1,1,0.28160000002384183,92
12,no_bias,0,0,0.06569999992847443,93
12,no_bias,1,1,0.1775,94
12,no_bias,1,0,0.49360000002384186,95
12,no_bias,0,0,0.251,96
12,bias,0,0,1.373,73
12,bias,0,0,0.21729999995231628,74
12,bias,1,1,0.4405,75
12,bias,0,0,0.285,76
12,bias,1,1,0.23609999990463257,77
12,bias,0,1,0.4017999999523163,78
12,bias,1,1,0.5058999999761581,79
12,bias,1,1,0.1845,80
12,bias,0,1,0.01340000009536743,81
12,bias,1,0,0.5608999999761581,82
12,bias,1,1,0.34080000007152556,83
12,bias,0,1,0.29490000009536743,84
12,bias,0,0,0.3425,85
12,bias,0,0,0.39520000004768374,86
12,bias,0,1,0.27239999997615816,87
12,bias,1,1,0.32639999997615815,88
12,bias,0,0,0.3305,89
12,bias,1,1,0.27939999997615816,90
12,bias,1,1,0.2679000000953674,91
12,bias,0,0,0.3309000000953674,92
12,bias,0,1,0.2963999999761581,93
12,bias,1,1,0.5248000000715256,94
12,bias,1,1,0.32570000004768374,95
12,bias,1,1,0.41160000002384184,96
12,bias,1,1,0.28069999992847444,97
12,bias,0,0,0.3702999999523162,98
12,bias,1,1,0.09420000004768372,99
12,bias,0,1,0.32589999997615815,100
12,bias,0,0,0.296,101
12,bias,0,0,0.2953999999761581,102
12,bias,1,1,0.30090000009536744,103
12,bias,1,1,0.2537999999523163,104
12,bias,1,1,0.3835,105
12,bias,0,0,0.02539999997615814,106
12,bias,1,1,0.28439999997615817,107
12,bias,1,1,0.3380999999046326,108
12,bias,1,1,0.35440000009536743,109
12,bias,0,1,0.4717000000476837,110
12,bias,0,1,0.15670000004768372,111
12,bias,0,0,0.31360000002384186,112
12,bias,0,1,0.2942000000476837,113
12,bias,1,1,0.34319999992847444,114
12,bias,1,1,0.297,115
12,bias,0,1,0.3702999999523162,116
12,bias,0,1,0.32420000004768373,117
12,bias,1,1,0.3015,118
12,bias,1,1,0.3181999999284744,119
12,bias,0,1,0.3377999999523163,120
12,no_bias,0,0,0.4657999999523163,97
12,no_bias,1,1,0.7045999999046326,98
12,no_bias,1,1,0.3572000000476837,99
12,no_bias,1,1,0.32839999997615815,100
12,no_bias,0,1,0.4751999999284745,101
12,no_bias,1,1,0.3831999999284744,102
12,no_bias,0,1,0.7956000000238419,103
12,no_bias,0,1,0.46939999997615817,104
12,no_bias,0,1,0.3351000000238419,105
12,no_bias,1,1,0.485,106
12,no_bias,1,1,0.3457000000476837,107
12,no_bias,1,1,0.5251000000238418,108
12,no_bias,1,1,0.3945,109
12,no_bias,0,1,0.34660000002384184,110
12,no_bias,1,1,0.27539999997615816,111
12,no_bias,0,1,0.4536000000238419,112
12,no_bias,0,1,0.3971999999284744,113
12,no_bias,1,1,0.30709999990463255,114
12,no_bias,0,1,0.6367999999523163,115
12,no_bias,0,0,0.408,116
12,no_bias,0,1,0.22430000007152556,117
12,no_bias,1,1,0.37560000002384186,118
12,no_bias,1,1,0.32919999992847443,119
12,no_bias,0,1,0.34860000002384184,120
12,bias,1,0,1.033899999976158,121
12,bias,1,1,0.7387000000476838,122
12,bias,0,1,0.5426999999284744,123
12,bias,0,0,0.8543000000715256,124
12,bias,1,0,0.3289000000953674,125
12,bias,0,1,0.10510000002384186,126
12,bias,1,1,0.26189999997615815,127
12,bias,1,1,0.2827000000476837,128
12,bias,1,0,0.12379999995231628,129
12,bias,1,1,0.13809999990463256,130
12,bias,0,0,0.3003999999761581,131
12,bias,1,0,0.2395,132
12,bias,1,1,0.33389999997615816,133
12,bias,0,0,0.4511999999284744,134
12,bias,0,1,0.2992000000476837,135
12,bias,0,1,0.41310000002384184,136
12,bias,0,1,0.08159999990463257,137
12,bias,0,1,0.46710000002384183,138
12,bias,1,1,0.1825,139
12,bias,1,0,0.6007000000476838,140
12,bias,0,1,0.38690000009536746,141
12,bias,0,0,4.987300000071525,142
12,bias,0,0,0.5971000000238419,143
12,bias,1,0,1.182899999976158,144
12,no_bias,1,1,0.39220000004768374,121
12,no_bias,0,1,0.35469999992847445,122
12,no_bias,0,1,0.26439999997615815,123
12,no_bias,1,1,0.20560000002384185,124
12,no_bias,0,1,0.4848000000715256,125
12,no_bias,1,1,0.16889999997615815,126
12,no_bias,0,1,0.5285,127
12,no_bias,1,1,0.31739999997615814,128
12,no_bias,0,1,0.4198999999761581,129
12,no_bias,0,0,0.19839999997615815,130
12,no_bias,1,1,0.3482999999523163,131
12,no_bias,0,0,0.3391000000238419,132
12,no_bias,1,0,0.3542000000476837,133
12,no_bias,1,1,0.4582999999523163,134
12,no_bias,0,1,0.5028000000715256,135
12,no_bias,1,1,0.2261999999284744,136
12,no_bias,0,0,0.5318000000715256,137
12,no_bias,0,1,0.335,138
12,no_bias,1,1,0.3517999999523163,139
12,no_bias,0,1,0.4047000000476837,140
12,no_bias,0,0,0.4110999999046326,141
12,no_bias,1,1,0.3248000000715256,142
12,no_bias,1,1,0.3585,143
12,no_bias,1,1,0.26439999997615815,144
13,bias,0,0,3.4446000000238417,1
13,bias,0,0,1.6092999999523163,2
13,bias,1,1,1.325,3
13,bias,1,1,1.1365,4
13,bias,0,1,2.092,5
13,bias,1,1,1.171899999976158,6
13,bias,0,0,1.2037999999523166,7
13,bias,1,1,0.8785,8
13,bias,0,1,1.3944000000953674,9
13,bias,1,1,1.178,10
13,bias,0,1,1.3289000000953677,11
13,bias,0,1,1.354399999976158,12
13,bias,1,1,0.8836000000238419,13
13,bias,1,1,0.8857000000476837,14
13,bias,0,1,1.4911999999284744,15
13,bias,1,1,0.866,16
13,bias,0,1,1.163600000023842,17
13,bias,1,1,0.8721000000238418,18
13,bias,0,1,0.982399999976158,19
13,bias,0,1,0.8995,20
13,bias,1,1,0.8438999999761582,21
13,bias,1,1,0.8183999999761581,22
13,bias,0,1,0.981399999976158,23
13,bias,1,1,0.8223999999761581,24
13,no_bias,0,0,3.0716999999284744,1
13,no_bias,0,1,2.328100000023842,2
13,no_bias,1,1,1.6338000000715256,3
13,no_bias,1,1,0.8487000000476838,4
13,no_bias,0,1,1.1177999999523165,5
13,no_bias,1,1,0.8856999999284745,6
13,no_bias,1,1,0.7977999999523163,7
13,no_bias,0,1,0.9132999999523164,8
13,no_bias,1,1,0.7798999999761581,9
13,no_bias,0,1,1.4737999999523166,10
13,no_bias,0,1,0.9031999999284744,11
13,no_bias,1,1,0.8356000000238418,12
13,no_bias,0,1,0.8892999999523162,13
13,no_bias,0,1,0.925600000023842,14
13,no_bias,1,1,0.7817000000476837,15
13,no_bias,0,0,0.8035,16
13,no_bias,0,1,0.92,17
13,no_bias,1,1,0.6846000000238418,18
13,no_bias,1,1,0.7723999999761582,19
13,no_bias,0,1,0.9516999999284744,20
13,no_bias,1,1,0.8025,21
13,no_bias,1,1,0.7072999999523163,22
13,no_bias,0,1,1.0972999999523163,23
13,no_bias,1,1,0.6624000000953675,24
13,no_bias,0,1,1.747899999976158,25
13,no_bias,0,1,1.852899999976158,26
13,no_bias,1,1,1.221100000023842,27
13,no_bias,1,1,1.1055999999046326,28
13,no_bias,1,1,0.9942000000476836,29
13,no_bias,1,1,1.1196999999284745,30
13,no_bias,1,1,0.7662000000476837,31
13,no_bias,0,1,0.911100000023842,32
13,no_bias,1,1,0.9062000000476836,33
13,no_bias,1,1,1.3125,34
13,no_bias,0,1,0.941899999976158,35
13,no_bias,0,1,0.9264000000953674,36
13,no_bias,0,1,0.8585,37
13,no_bias,1,1,0.6972999999523163,38
13,no_bias,0,1,1.1395,39
13,no_bias,0,1,0.898,40
13,no_bias,1,1,1.1102000000476837,41
13,no_bias,0,1,1.0057000000476837,42
13,no_bias,1,1,0.984899999976158,43
13,no_bias,1,1,0.8843999999761581,44
13,no_bias,0,1,0.950399999976158,45
13,no_bias,0,1,0.8036000000238419,46
13,no_bias,1,1,0.9834000000953674,47
13,no_bias,0,1,0.967399999976158,48
13,no_bias,0,1,2.965100000023842,49
13,no_bias,1,1,1.5333999999761578,50
13,no_bias,1,1,1.046100000023842,51
13,no_bias,1,0,1.3212999999523165,52
13,no_bias,0,1,0.8796000000238419,53
13,no_bias,1,0,0.899,54
13,no_bias,1,0,0.8291000000238419,55
13,no_bias,1,1,2.285099999904633,56
13,no_bias,0,1,0.9172000000476837,57
13,no_bias,0,1,0.9276999999284744,58
13,no_bias,0,1,0.9227999999523164,59
13,no_bias,1,1,0.960600000023842,60
13,no_bias,0,1,0.931600000023842,61
13,no_bias,0,1,1.5577999999523164,62
13,no_bias,1,1,0.837,63
13,no_bias,0,1,1.1578000000715256,64
13,no_bias,1,1,1.4127000000476837,65
13,no_bias,1,1,1.1495999999046325,66
13,no_bias,1,0,0.936899999976158,67
13,no_bias,0,1,0.9617999999523164,68
13,no_bias,0,1,0.8017999999523163,69
13,no_bias,0,1,0.8287999999523162,70
13,no_bias,1,1,1.0315999999046326,71
13,no_bias,0,1,0.940399999976158,72
13,bias,1,1,1.5601999999284744,25
13,bias,1,0,4.3032999999523165,26
13,bias,1,0,1.072899999976158,27
13,bias,0,1,0.8031000000238419,28
13,bias,1,0,0.8555,29
13,bias,0,1,0.8501000000238419,30
13,bias,0,1,0.8698999999761582,31
13,bias,1,1,0.8212000000476837,32
13,bias,0,1,1.012899999976158,33
13,bias,1,1,0.9387000000476836,34
13,bias,0,1,0.916,35
13,bias,1,0,0.7906999999284744,36
13,bias,0,1,0.887,37
13,bias,0,1,0.7791000000238418,38
13,bias,1,1,1.526,39
13,bias,0,1,0.93,40
13,bias,1,1,0.8661999999284744,41
13,bias,0,1,0.971899999976158,42
13,bias,1,1,0.8253999999761581,43
13,bias,0,0,0.971399999976158,44
13,bias,1,1,0.7761000000238418,45
13,bias,0,1,1.381600000023842,46
13,bias,1,0,2.200900000095367,47
13,bias,0,1,0.9635,48
13,bias,1,1,1.169899999976158,49
13,bias,0,1,1.5307999999523163,50
13,bias,1,1,1.048,51
13,bias,1,1,0.8610999999046326,52
13,bias,1,1,0.8065999999046326,53
13,bias,0,1,0.9563000000715256,54
13,bias,1,1,0.8058999999761581,55
13,bias,1,1,0.8323999999761581,56
13,bias,0,1,0.914600000023842,57
13,bias,0,1,0.8118000000715255,58
13,bias,1,1,0.804,59
13,bias,1,1,0.7252000000476837,60
13,bias,1,1,0.7145,61
13,bias,0,1,0.8863999999761581,62
13,bias,1,1,0.8632999999523163,63
13,bias,0,1,0.861,64
13,bias,0,1,0.7878999999761581,65
13,bias,0,0,0.7312000000476837,66
13,bias,1,1,1.1045,67
13,bias,0,1,0.8233000000715256,68
13,bias,0,1,1.5465999999046325,69
13,bias,0,1,0.8573000000715256,70
13,bias,1,1,0.858,71
13,bias,0,1,0.914100000023842,72
13,no_bias,0,0,2.4815,73
13,no_bias,1,1,0.8782000000476837,74
13,no_bias,0,1,1.4191999999284743,75
13,no_bias,1,1,0.929100000023842,76
13,no_bias,0,1,0.9556999999284744,77
13,no_bias,0,1,0.8551000000238419,78
13,no_bias,0,1,0.8276000000238418,79
13,no_bias,0,1,0.8371000000238419,80
13,no_bias,0,1,0.7807000000476837,81
13,no_bias,0,1,0.8545,82
13,no_bias,1,1,0.922100000023842,83
13,no_bias,1,1,0.7670999999046326,84
13,no_bias,0,1,0.9065999999046326,85
13,no_bias,1,1,0.9616999999284744,86
13,no_bias,1,1,0.7941000000238418,87
13,no_bias,0,1,0.9069000000953674,88
13,no_bias,0,1,0.8118999999761581,89
13,no_bias,1,1,0.8767999999523163,90
13,no_bias,1,1,0.76,91
13,no_bias,1,1,0.7291999999284744,92
13,no_bias,1,1,0.7849000000953674,93
13,no_bias,1,1,0.7241999999284744,94
13,no_bias,1,1,0.6622999999523163,95
13,no_bias,0,1,1.231100000023842,96
13,bias,1,1,1.6367000000476837,73
13,bias,1,1,0.9160999999046324,74
13,bias,0,1,1.464,75
13,bias,0,1,0.8889000000953674,76
13,bias,0,1,0.7753000000715256,77
13,bias,0,1,0.8083999999761582,78
13,bias,0,1,0.8069000000953674,79
13,bias,0,1,0.8032000000476838,80
13,bias,1,1,0.6997000000476837,81
13,bias,1,1,0.8723000000715255,82
13,bias,0,1,1.0461999999284743,83
13,bias,1,1,0.5861000000238419,84
13,bias,1,1,0.5828999999761582,85
13,bias,1,1,0.7743999999761582,86
13,bias,0,1,0.9592000000476836,87
13,bias,0,1,0.8419000000953675,88
13,bias,1,0,0.7822000000476838,89
13,bias,0,1,0.8017999999523163,90
13,bias,1,1,0.8496000000238418,91
13,bias,1,1,0.7153999999761581,92
13,bias,1,1,0.7585,93
13,bias,0,1,1.021,94
13,bias,0,1,0.8472999999523163,95
13,bias,1,0,0.8343999999761581,96
13,bias,0,1,1.159,97
13,bias,0,0,1.3637000000476835,98
13,bias,1,1,0.844,99
13,bias,0,1,0.9132000000476836,100
13,bias,1,1,0.8562000000476837,101
13,bias,1,0,1.1197000000476836,102
13,bias,0,1,0.8892999999523162,103
13,bias,1,1,0.8751000000238418,104
13,bias,0,1,0.979899999976158,105
13,bias,1,1,0.8921999999284744,106
13,bias,0,1,0.910600000023842,107
13,bias,1,1,0.8358999999761582,108
13,bias,1,1,0.7588000000715256,109
13,bias,1,1,0.7406999999284745,110
13,bias,0,1,0.8944000000953675,111
13,bias,0,1,0.7392999999523163,112
13,bias,1,1,0.8501000000238419,113
13,bias,1,1,0.7311000000238419,114
13,bias,0,0,1.151,115
13,bias,0,1,1.2088000000715255,116
13,bias,0,1,0.8527999999523163,117
13,bias,1,1,0.9006999999284744,118
13,bias,1,1,0.7527999999523163,119
13,bias,0,0,0.7671999999284744,120
13,no_bias,0,0,1.8863999999761576,97
13,no_bias,1,1,1.0886999999284743,98
13,no_bias,0,1,0.9957999999523164,99
13,no_bias,0,1,0.8415,100
13,no_bias,1,1,0.9810999999046326,101
13,no_bias,0,1,0.8286000000238418,102
13,no_bias,0,1,0.7781000000238418,103
13,no_bias,0,1,0.7713000000715255,104
13,no_bias,0,1,0.8155999999046326,105
13,no_bias,0,1,0.8461999999284744,106
13,no_bias,0,0,1.888,107
13,no_bias,1,1,0.9300999999046324,108
13,no_bias,0,1,0.887,109
13,no_bias,0,1,1.327,110
13,no_bias,1,1,0.8306000000238418,111
13,no_bias,1,1,0.7592000000476837,112
13,no_bias,1,1,0.7558999999761581,113
13,no_bias,0,1,0.9081999999284744,114
13,no_bias,1,1,0.841,115
13,no_bias,1,1,0.7362000000476837,116
13,no_bias,1,1,0.7715999999046326,117
13,no_bias,1,1,0.7699000000953674,118
13,no_bias,1,1,0.8512999999523163,119
13,no_bias,1,0,0.949100000023842,120
13,bias,1,1,1.136,121
13,bias,0,0,0.8766000000238419,122
13,bias,0,1,0.9161999999284745,123
13,bias,1,1,0.8416000000238418,124
13,bias,1,1,0.7407999999523163,125
13,bias,0,1,0.925,126
13,bias,1,1,0.8925,127
13,bias,1,1,1.2336999999284743,128
13,bias,1,1,0.7776000000238419,129
13,bias,0,1,0.8852000000476837,130
13,bias,1,1,0.8001999999284745,131
13,bias,1,1,0.7218999999761582,132
13,bias,0,1,0.9078000000715256,133
13,bias,1,1,0.8617000000476838,134
13,bias,0,0,1.0878000000715256,135
13,bias,0,1,0.8808999999761581,136
13,bias,0,1,0.8352999999523163,137
13,bias,1,1,1.172899999976158,138
13,bias,0,1,0.970399999976158,139
13,bias,0,1,0.8736999999284745,140
13,bias,0,1,0.8636999999284745,141
13,bias,1,1,0.8278000000715255,142
13,bias,1,1,0.7093999999761581,143
13,bias,0,1,1.5233000000715256,144
13,no_bias,0,1,1.3492000000476836,121
13,no_bias,1,1,1.1962999999523165,122
13,no_bias,0,1,1.135600000023842,123
13,no_bias,1,1,0.8383000000715256,124
13,no_bias,0,1,1.0157000000476837,125
13,no_bias,1,1,0.8967000000476837,126
13,no_bias,0,1,0.922600000023842,127
13,no_bias,0,0,0.8367999999523162,128
13,no_bias,1,1,0.7395,129
13,no_bias,1,1,0.7741000000238418,130
13,no_bias,1,1,0.7651000000238418,131
13,no_bias,0,0,0.7455,132
13,no_bias,0,1,1.0202000000476836,133
13,no_bias,0,1,0.8532000000476837,134
13,no_bias,1,1,0.8484000000953674,135
13,no_bias,1,1,0.7702000000476837,136
13,no_bias,0,1,1.2168999999761578,137
13,no_bias,0,1,0.8278999999761582,138
13,no_bias,0,0,1.179,139
13,no_bias,1,1,0.8727000000476837,140
13,no_bias,1,1,0.7371000000238419,141
13,no_bias,1,0,0.939100000023842,142
13,no_bias,1,1,0.837,143
13,no_bias,0,1,0.946,144
14,no_bias,1,1,1.0215,1
14,no_bias,1,1,0.41819999992847445,2
14,no_bias,0,1,0.6631000000238418,3
14,no_bias,1,1,0.3042000000476837,4
14,no_bias,1,1,0.27430000007152555,5
14,no_bias,1,1,0.28230000007152556,6
14,no_bias,1,1,0.2501999999284744,7
14,no_bias,1,1,0.3135,8
14,no_bias,1,1,0.30339999997615813,9
14,no_bias,0,0,0.6828000000715255,10
14,no_bias,0,1,0.38770000004768373,11
14,no_bias,1,1,0.23839999997615816,12
14,no_bias,1,1,0.3147000000476837,13
14,no_bias,1,1,0.3276000000238419,14
14,no_bias,0,1,0.5091000000238418,15
14,no_bias,1,1,0.3153000000715256,16
14,no_bias,0,1,0.37989999997615814,17
14,no_bias,0,1,0.46239999997615816,18
14,no_bias,0,1,0.44870000004768373,19
14,no_bias,0,0,0.5092000000476837,20
14,no_bias,0,0,0.40339999997615816,21
14,no_bias,0,1,0.2704000000953674,22
14,no_bias,0,1,0.6933000000715256,23
14,no_bias,0,0,0.33989999997615816,24
14,no_bias,1,1,1.490899999976158,25
14,no_bias,1,1,0.33780000007152555,26
14,no_bias,0,1,0.49360000002384186,27
14,no_bias,1,1,0.2975,28
14,no_bias,1,1,0.6431000000238418,29
14,no_bias,1,1,0.37189999997615814,30
14,no_bias,0,1,0.7435,31
14,no_bias,1,1,0.387,32
14,no_bias,1,1,0.33780000007152555,33
14,no_bias,1,1,0.3395,34
14,no_bias,0,0,0.5902999999523163,35
14,no_bias,0,1,0.364,36
14,no_bias,1,1,0.258,37
14,no_bias,1,1,0.3057000000476837,38
14,no_bias,0,1,0.4837000000476837,39
14,no_bias,0,0,0.6898999999761581,40
14,no_bias,0,1,0.21560000002384183,41
14,no_bias,0,0,0.5811000000238419,42
14,no_bias,1,1,0.3976000000238419,43
14,no_bias,0,1,0.3555,44
14,no_bias,0,0,0.5853999999761581,45
14,no_bias,0,1,0.4848000000715256,46
14,no_bias,0,1,0.6533999999761582,47
14,no_bias,1,1,0.38870000004768374,48
14,bias,0,1,1.6131999999284743,1
14,bias,0,0,0.3142000000476837,2
14,bias,1,1,0.2935,3
14,bias,1,1,0.36939999997615813,4
14,bias,0,0,0.3901000000238419,5
14,bias,1,1,0.14839999997615813,6
14,bias,1,1,0.01160000002384185,7
14,bias,1,1,0.08029999995231628,8
14,bias,1,1,0.21189999997615816,9
14,bias,1,1,0.3082999999523163,10
14,bias,0,0,0.5293000000715256,11
14,bias,0,1,0.586,12
14,bias,1,1,0.629,13
14,bias,1,1,0.22220000004768373,14
14,bias,0,0,0.3397999999523163,15
14,bias,1,1,0.266,16
14,bias,0,0,0.304,17
14,bias,0,0,0.4222000000476837,18
14,bias,1,1,0.2883999999761581,19
14,bias,0,0,0.28730000007152556,20
14,bias,0,1,0.4512999999523163,21
14,bias,0,0,0.3407000000476837,22
14,bias,1,1,0.23239999997615815,23
14,bias,0,1,0.5697999999523163,24
14,no_bias,0,0,0.8478999999761582,49
14,no_bias,1,1,0.30960000002384186,50
14,no_bias,0,1,0.43839999997615814,51
14,no_bias,0,1,0.5197999999523163,52
14,no_bias,1,1,0.24729999995231627,53
14,no_bias,0,1,0.6118999999761582,54
14,no_bias,0,1,1.0002000000476836,55
14,no_bias,1,1,0.139,56
14,no_bias,0,1,0.3911000000238419,57
14,no_bias,1,1,0.45739999997615816,58
14,no_bias,0,1,0.448,59
14,no_bias,1,1,0.23489999997615815,60
14,no_bias,1,1,0.35710000002384185,61
14,no_bias,0,0,0.5707999999523163,62
14,no_bias,1,1,0.1687000000476837,63
14,no_bias,1,1,0.2787000000476837,64
14,no_bias,0,1,0.5060999999046326,65
14,no_bias,1,1,0.2915,66
14,no_bias,0,1,0.25839999997615815,67
14,no_bias,1,1,0.29579999995231626,68
14,no_bias,1,1,0.23730000007152555,69
14,no_bias,1,1,0.31910000002384187,70
14,no_bias,0,1,0.3071999999284744,71
14,no_bias,0,0,0.2105,72
14,no_bias,0,1,0.9172000000476837,73
14,no_bias,0,1,0.3508999999761581,74
14,no_bias,1,1,0.24,75
14,no_bias,0,1,0.5338000000715256,76
14,no_bias,1,1,0.256,77
14,no_bias,0,1,1.1228000000715257,78
14,no_bias,1,1,0.3946000000238419,79
14,no_bias,0,1,0.3571999999284744,80
14,no_bias,0,1,0.7132999999523163,81
14,no_bias,1,1,0.6958999999761581,82
14,no_bias,1,1,0.25620000004768373,83
14,no_bias,1,1,0.2521000000238418,84
14,no_bias,1,1,0.2802000000476837,85
14,no_bias,1,1,0.26970000004768374,86
14,no_bias,0,1,0.38060000002384187,87
14,no_bias,1,1,0.13610000002384187,88
14,no_bias,1,1,0.30509999990463255,89
14,no_bias,0,1,0.808,90
14,no_bias,0,0,0.4003000000715255,91
14,no_bias,0,0,0.38110000002384187,92
14,no_bias,0,1,0.6021000000238419,93
14,no_bias,0,0,0.44010000002384186,94
14,no_bias,1,1,0.45370000004768374,95
14,bias,0,0,0.34760000002384184,25
14,bias,0,0,0.2265,26
14,bias,0,0,0.20039999997615815,27
14,bias,0,0,0.28810000002384184,28
14,bias,1,1,0.7219000000953675,29
14,bias,1,1,0.6216000000238419,30
14,bias,0,0,0.41710000002384184,31
14,bias,0,1,0.36660000002384185,32
14,bias,1,1,0.5160999999046326,33
14,bias,1,1,0.30889999997615813,34
14,bias,1,1,0.2952000000476837,35
14,bias,1,1,0.148,36
14,bias,1,1,0.3082000000476837,37
14,bias,0,0,0.35660000002384185,38
14,bias,0,0,0.355,39
14,bias,1,1,0.2678000000715256,40
14,bias,0,0,0.402,41
14,bias,0,0,0.3182999999523163,42
14,bias,0,0,0.23659999990463257,43
14,bias,1,1,0.05920000004768371,44
14,bias,0,0,0.4575,45
14,bias,1,1,0.13119999992847442,46
14,bias,1,1,0.3132000000476837,47
14,bias,1,1,0.2922000000476837,48
14,no_bias,1,1,0.3147999999523163,96
14,no_bias,1,1,0.254,97
14,no_bias,1,1,0.26389999997615815,98
14,no_bias,1,1,0.20910000002384185,99
14,no_bias,1,1,0.2731000000238419,100
14,no_bias,0,0,0.34730000007152556,101
14,no_bias,0,1,0.3213000000715256,102
14,no_bias,0,1,0.2277000000476837,103
14,no_bias,0,0,0.06980000007152558,104
14,no_bias,1,1,0.2115,105
14,no_bias,1,1,0.26620000004768374,106
14,no_bias,0,0,0.5168999999761581,107
14,no_bias,0,0,0.395,108
14,no_bias,1,1,0.22980000007152557,109
14,no_bias,0,1,0.2927000000476837,110
14,no_bias,1,1,0.29929999995231626,111
14,no_bias,0,1,0.5588999999761581,112
14,no_bias,0,0,0.4020999999046326,113
14,no_bias,0,1,0.00379999995231628,114
14,no_bias,1,1,0.0505,115
14,no_bias,1,1,0.2805,116
14,no_bias,0,1,0.6017000000476838,117
14,no_bias,0,1,0.6947000000476837,118
14,no_bias,1,1,0.227,119
14,no_bias,0,0,0.3745,120
14,no_bias,1,1,0.2966999999284744,121
14,no_bias,0,1,0.2506000000238418,122
14,no_bias,0,1,0.5805,123
14,no_bias,1,1,0.09629999995231628,124
14,no_bias,0,1,0.28969999992847445,125
14,no_bias,0,1,0.39170000004768374,126
14,no_bias,0,1,0.3601999999284744,127
14,no_bias,0,0,0.323,128
14,no_bias,1,1,0.27389999997615816,129
14,no_bias,1,1,0.3176999999284744,130
14,no_bias,0,1,0.24879999995231628,131
14,no_bias,0,0,0.3302999999523163,132
14,no_bias,1,1,0.4193000000715256,133
14,no_bias,1,1,0.06070000004768371,134
14,no_bias,1,1,0.47,135
14,no_bias,0,1,0.4144000000953674,136
14,no_bias,0,1,0.32809999990463257,137
14,no_bias,0,1,0.385,138
14,no_bias,1,1,0.3365,139
14,no_bias,1,1,0.2707999999523163,140
14,no_bias,1,1,0.3081999999284744,141
14,no_bias,1,1,0.4297000000476837,142
14,no_bias,1,1,0.2632999999523163,143
14,bias,1,1,0.34969999992847445,49
14,bias,0,0,0.5483000000715256,50
14,bias,0,1,0.30689999997615813,51
14,bias,0,0,0.38539999997615815,52
14,bias,1,1,0.29279999995231626,53
14,bias,1,1,0.4357999999523163,54
14,bias,1,1,0.2887999999523163,55
14,bias,0,0,0.44489999997615814,56
14,bias,1,0,0.04370000004768371,57
14,bias,0,0,0.4615,58
14,bias,1,1,0.271,59
14,bias,0,0,0.4623000000715255,60
14,bias,1,1,0.3156999999284744,61
14,bias,0,0,0.3658999999761582,62
14,bias,1,1,0.47010000002384184,63
14,bias,0,0,0.6402000000476837,64
14,bias,1,1,0.265,65
14,bias,0,0,0.42510000002384185,66
14,bias,1,1,0.3086999999284744,67
14,bias,0,1,0.36939999997615813,68
14,bias,0,0,0.32039999997615815,69
14,bias,1,1,0.2899000000953674,70
14,bias,1,1,0.4805,71
14,bias,0,1,0.03920000004768371,72
14,bias,1,1,0.09520000004768372,73
14,bias,1,1,0.28360000002384184,74
14,bias,1,1,0.2957000000476837,75
14,bias,0,0,0.3132000000476837,76
14,bias,1,1,0.045,77
14,bias,0,0,0.37389999997615814,78
14,bias,0,0,0.3212999999523163,79
14,bias,0,0,0.287,80
14,bias,1,1,0.3812000000476838,81
14,bias,0,0,0.4928000000715256,82
14,bias,1,1,0.316,83
14,bias,1,1,0.3045,84
14,bias,1,1,0.06289999997615814,85
14,bias,0,0,0.7105,86
14,bias,1,1,0.291,87
14,bias,1,1,0.276,88
14,bias,0,0,0.3027000000476837,89
14,bias,0,0,0.4,90
14,bias,0,0,0.2558000000715256,91
14,bias,0,0,0.30810000002384186,92
14,bias,0,1,0.3248000000715256,93
14,bias,0,0,0.3772000000476837,94
14,bias,1,1,0.3142999999523163,95
14,bias,1,1,0.3826000000238418,96
14,bias,0,0,0.5934000000953674,97
14,bias,1,1,0.26320000004768374,98
14,bias,0,1,0.3145,99
14,bias,1,1,0.25789999997615815,100
14,bias,0,0,0.33,101
14,bias,0,1,0.6568999999761581,102
14,bias,0,1,0.32589999997615815,103
14,bias,0,1,0.48660000002384185,104
14,bias,1,1,0.2695,105
14,bias,1,1,0.3342999999523163,106
14,bias,0,0,0.3773000000715256,107
14,bias,0,1,0.5497999999523163,108
14,bias,1,1,0.28489999997615817,109
14,bias,1,1,0.30660000002384186,110
14,bias,1,1,0.36310000002384185,111
14,bias,1,1,0.06409999990463257,112
14,bias,1,1,0.26770000004768374,113
14,bias,1,1,0.28980000007152557,114
14,bias,0,1,0.5668999999761581,115
14,bias,0,0,0.287,116
14,bias,1,1,0.30379999995231627,117
14,bias,0,0,0.3307999999523163,118
14,bias,1,1,0.32539999997615815,119
14,bias,0,0,0.32010000002384187,120
14,bias,0,0,0.3811999999284744,121
14,bias,0,0,0.386,122
14,bias,0,1,0.45239999997615815,123
14,bias,1,1,0.3377999999523163,124
14,bias,0,0,0.32709999990463257,125
14,bias,0,1,0.3732999999523163,126
14,bias,1,1,0.2616999999284744,127
14,bias,0,1,0.3178000000715256,128
14,bias,1,1,0.24310000002384183,129
14,bias,1,1,0.2895,130
14,bias,0,1,0.7548000000715256,131
14,bias,1,1,0.2847000000476837,132
14,bias,1,1,0.11509999990463256,133
14,bias,0,0,0.386,134
14,bias,1,1,0.3417999999523163,135
14,bias,0,0,0.4907000000476837,136
14,bias,0,0,0.24989999997615817,137
14,bias,1,1,0.2582999999523163,138
14,bias,0,1,0.6162999999523163,139
14,bias,0,0,0.2863999999761581,140
14,bias,1,1,0.308,141
14,bias,1,1,0.2903999999761581,142
14,bias,1,1,0.28339999997615817,143
14,bias,1,1,0.3625,144
16,no_bias,0,1,5.599800000000745,1
16,no_bias,1,1,1.9434000000003724,2
16,no_bias,1,1,2.904699999999255,3
16,no_bias,1,0,2.235800000000745,4
16,no_bias,0,0,1.4201000000014898,5
16,no_bias,0,0,3.3247000000011178,6
16,no_bias,1,1,1.77989999999851,7
16,no_bias,1,1,0.9393000000007452,8
16,no_bias,1,1,1.093,9
16,no_bias,1,1,0.862,10
16,no_bias,1,1,0.5721000000014901,11
16,no_bias,0,1,1.907,12
16,no_bias,0,1,1.981400000000372,13
16,no_bias,1,1,1.3833000000007452,14
16,no_bias,0,1,1.8345,15
16,no_bias,1,1,0.9325,16
16,no_bias,0,0,4.038099999999627,17
16,no_bias,1,1,0.8265999999996275,18
16,no_bias,0,1,2.1765,19
16,no_bias,0,1,1.4272000000011176,20
16,no_bias,0,0,3.504400000000373,21
16,no_bias,0,0,0.1935,22
16,no_bias,1,1,1.1147999999988825,23
16,no_bias,0,0,5.2464000000003725,24
16,bias,1,1,1.9715,1
16,bias,1,1,0.5972999999988824,2
16,bias,1,1,0.3835999999996274,3
16,bias,1,1,0.5008999999985099,4
16,bias,1,1,0.5697999999988824,5
16,bias,0,1,1.5705999999996276,6
16,bias,1,1,1.153,7
16,bias,0,1,1.510699999999255,8
16,bias,1,1,0.5756999999992549,9
16,bias,0,1,4.025299999998882,10
16,bias,1,1,0.5763999999985099,11
16,bias,0,1,3.275699999999255,12
16,bias,0,0,2.5633999999985098,13
16,bias,1,1,0.676199999999255,14
16,bias,1,1,0.5685999999996275,15
16,bias,0,0,3.5478000000007452,16
16,bias,0,1,2.935,17
16,bias,0,1,0.8877999999988824,18
16,bias,1,1,0.33869999999925493,19
16,bias,0,1,1.0155,20
16,bias,0,1,3.0565999999996274,21
16,bias,0,1,0.95339999999851,22
16,bias,1,1,0.21,23
16,bias,0,1,1.9591999999992549,24
16,no_bias,1,1,0.10369999999925494,25
16,no_bias,1,1,0.4591999999992549,26
16,no_bias,0,0,1.871,27
16,no_bias,0,1,1.463,28
16,no_bias,1,1,0.3717999999988824,29
16,no_bias,0,1,0.9825999999996275,30
16,no_bias,1,1,0.1535,31
16,no_bias,0,0,1.4635,32
16,no_bias,1,0,1.2605999999996278,33
16,no_bias,1,1,0.8457999999988824,34
16,no_bias,1,1,2.1439000000003725,35
16,no_bias,0,1,4.8643999999985095,36
16,no_bias,1,0,2.195699999999255,37
16,no_bias,0,0,0.4258000000007451,38
16,no_bias,0,0,0.4635,39
16,no_bias,1,1,0.6147000000011176,40
16,no_bias,1,1,0.4434000000003726,41
16,no_bias,0,1,1.6898000000007452,42
16,no_bias,0,0,3.845199999999255,43
16,no_bias,0,0,1.0119000000003724,44
16,no_bias,0,1,2.740800000000745,45
16,no_bias,0,0,3.375300000000745,46
16,no_bias,1,0,0.8719000000003725,47
16,no_bias,1,0,0.7688000000007451,48
16,bias,1,1,2.1979000000003723,25
16,bias,1,0,1.5420999999996277,26
16,bias,0,1,0.8454000000003725,27
16,bias,0,0,0.4945,28
16,bias,0,1,0.41619999999925494,29
16,bias,1,1,0.5485,30
16,bias,1,1,0.35819999999925495,31
16,bias,1,1,0.44580000000074504,32
16,bias,1,1,0.11380000000074506,33
16,bias,1,1,0.18409999999962748,34
16,bias,0,0,0.3745999999996274,35
16,bias,0,0,0.3459000000003725,36
16,bias,0,1,0.46190000000037257,37
16,bias,1,1,0.119,38
16,bias,0,0,1.238199999999255,39
16,bias,0,0,0.795800000000745,40
16,bias,0,0,1.6324000000003722,41
16,bias,0,1,0.663800000000745,42
16,bias,1,1,0.396,43
16,bias,1,1,1.3540999999996275,44
16,bias,0,0,0.5759000000003726,45
16,bias,0,1,3.4755,46
16,bias,1,1,1.257,47
16,bias,1,1,0.13569999999925494,48
16,no_bias,0,0,2.044,49
16,no_bias,1,1,0.7152000000011176,50
16,no_bias,0,0,0.5371000000014902,51
16,no_bias,1,1,0.2745,52
16,no_bias,1,1,0.1045,53
16,no_bias,0,0,0.2735999999996275,54
16,no_bias,0,0,1.1459000000003725,55
16,no_bias,1,1,0.4046000000014901,56
16,no_bias,0,0,0.521699999999255,57
16,no_bias,1,1,0.23509999999962747,58
16,no_bias,0,0,0.4392000000011176,59
16,no_bias,0,0,0.3945999999996274,60
16,no_bias,1,1,0.40730000000074507,61
16,no_bias,1,1,0.1177000000011176,62
16,no_bias,1,1,0.46090000000037257,63
16,no_bias,0,0,0.6095,64
16,no_bias,0,0,0.5862999999988824,65
16,no_bias,1,1,0.1256000000014901,66
16,no_bias,0,0,0.46180000000074506,67
16,no_bias,1,1,0.1715,68
16,no_bias,1,1,0.18110000000149012,69
16,no_bias,0,0,0.4535,70
16,no_bias,0,0,0.8925999999996275,71
16,no_bias,1,1,0.02290000000037253,72
16,bias,0,0,1.2899000000003722,49
16,bias,1,1,1.0107000000011177,50
16,bias,0,0,0.544199999999255,51
16,bias,0,0,0.4284000000003726,52
16,bias,0,0,0.45030000000074505,53
16,bias,1,1,0.3752000000011176,54
16,bias,1,1,0.740300000000745,55
16,bias,1,1,0.4469000000003726,56
16,bias,0,0,0.471800000000745,57
16,bias,1,1,0.3319000000003725,58
16,bias,0,0,0.5406999999992549,59
16,bias,0,0,0.4571999999992549,60
16,bias,1,1,0.3552999999988824,61
16,bias,1,1,0.26259999999962746,62
16,bias,0,0,0.4762000000011176,63
16,bias,1,1,0.40630000000074507,64
16,bias,1,1,0.3187999999988824,65
16,bias,1,1,0.24,66
16,bias,1,1,0.16990000000037253,67
16,bias,1,1,0.2062999999988824,68
16,bias,0,0,0.43119999999925496,69
16,bias,0,0,0.503,70
16,bias,0,0,0.4205,71
16,bias,0,0,0.5703000000007451,72
16,no_bias,1,1,0.6017000000011176,73
16,no_bias,0,0,0.4894000000003726,74
16,no_bias,0,1,1.3232999999988824,75
16,no_bias,1,1,0.5516999999992549,76
16,no_bias,1,1,1.02010000000149,77
16,no_bias,0,1,1.0259000000003724,78
16,no_bias,1,1,0.5301000000014902,79
16,no_bias,0,0,0.3540999999996275,80
16,no_bias,0,0,0.4756000000014901,81
16,no_bias,1,1,0.625300000000745,82
16,no_bias,0,0,0.5649000000003725,83
16,no_bias,0,0,0.5131999999992549,84
16,no_bias,1,1,0.3630999999996274,85
16,no_bias,0,0,0.522699999999255,86
16,no_bias,1,1,0.3946999999992549,87
16,no_bias,0,0,0.4845,88
16,no_bias,0,1,1.1114000000003723,89
16,no_bias,1,1,0.6275,90
16,no_bias,0,0,0.7113999999985099,91
16,no_bias,1,1,0.2425,92
16,no_bias,1,1,0.3442000000011176,93
16,no_bias,1,1,0.3102000000011176,94
16,no_bias,1,1,0.0085,95
16,no_bias,0,0,0.3853999999985099,96
16,bias,1,1,2.2330999999996273,73
16,bias,0,0,0.35119999999925494,74
16,bias,1,0,0.3945,75
16,bias,0,0,0.09390000000037252,76
16,bias,1,0,0.34569999999925494,77
16,bias,1,1,4.149400000000372,78
16,bias,1,1,1.8375,79
16,bias,1,1,0.4005999999996274,80
16,bias,1,1,0.30159999999962744,81
16,bias,0,1,1.977800000000745,82
16,bias,1,1,0.5845999999996274,83
16,bias,1,1,0.236,84
16,bias,0,1,1.499,85
16,bias,0,1,0.7962999999988825,86
16,bias,0,0,0.39,87
16,bias,1,1,2.5269000000003725,88
16,bias,0,1,1.6227999999988825,89
16,bias,0,0,0.7655,90
16,bias,1,1,0.30169999999925495,91
16,bias,1,1,0.08390000000037252,92
16,bias,0,1,0.8282999999988824,93
16,bias,0,0,1.754,94
16,bias,0,1,2.873299999998882,95
16,bias,0,0,0.3945,96
16,no_bias,0,1,4.257699999999255,97
16,no_bias,0,1,1.107199999999255,98
16,no_bias,0,0,0.5836999999992549,99
16,no_bias,0,1,1.236800000000745,100
16,no_bias,1,1,1.1089000000003724,101
16,no_bias,1,1,0.4354000000003726,102
16,no_bias,0,0,0.755,103
16,no_bias,1,1,0.9326999999992548,104
16,no_bias,1,1,0.4759000000003726,105
16,no_bias,1,1,1.149,106
16,no_bias,0,0,1.1026999999992548,107
16,no_bias,0,0,0.27419999999925493,108
16,no_bias,0,0,0.782800000000745,109
16,no_bias,1,1,0.12940000000037252,110
16,no_bias,1,1,0.725199999999255,111
16,no_bias,1,1,0.7827999999988824,112
16,no_bias,1,0,0.9005,113
16,no_bias,1,1,0.543,114
16,no_bias,1,1,1.187699999999255,115
16,no_bias,0,0,0.9415999999996276,116
16,no_bias,0,1,3.21010000000149,117
16,no_bias,0,0,1.2425,118
16,no_bias,0,0,0.988,119
16,no_bias,1,1,4.0325,120
16,no_bias,0,0,0.5011999999992549,121
16,no_bias,0,0,0.5707999999988824,122
16,no_bias,1,1,1.4685999999996278,123
16,no_bias,1,1,0.7754000000003726,124
16,no_bias,1,1,0.689800000000745,125
16,no_bias,0,0,1.121800000000745,126
16,no_bias,0,1,2.0704000000003724,127
16,no_bias,1,1,1.156300000000745,128
16,no_bias,0,0,0.9258000000007452,129
16,no_bias,0,0,2.7204000000003727,130
16,no_bias,0,1,2.9782999999988826,131
16,no_bias,1,0,1.762800000000745,132
16,no_bias,1,1,1.0060999999996276,133
16,no_bias,1,1,1.376199999999255,134
16,no_bias,0,1,1.907,135
16,no_bias,1,1,0.9591999999992548,136
16,no_bias,1,1,1.4730999999996277,137
16,no_bias,0,0,0.5185,138
16,no_bias,1,1,0.8644000000003725,139
16,no_bias,0,0,0.5080999999996274,140
16,no_bias,1,1,0.785800000000745,141
16,no_bias,0,0,0.9568000000007452,142
16,no_bias,0,1,2.2774000000003727,143
16,no_bias,1,0,0.6376000000014901,144
16,bias,0,0,0.7389000000003725,97
16,bias,1,1,0.7054000000003725,98
16,bias,0,0,1.2877000000011176,99
16,bias,1,1,0.6350999999996275,100
16,bias,0,1,1.2245,101
16,bias,1,1,0.9632000000011176,102
16,bias,1,1,0.8197000000011175,103
16,bias,0,1,1.0450999999996278,104
16,bias,1,1,1.1045999999996277,105
16,bias,0,1,1.04039999999851,106
16,bias,1,1,1.1466999999992549,107
16,bias,0,1,2.0785999999996276,108
16,bias,0,0,0.8019000000003725,109
16,bias,1,1,8.730200000001117,110
16,bias,1,1,1.644475000000093,111
16,bias,0,0,0.8103000000007451,112
16,bias,1,1,0.9188000000007452,113
16,bias,0,0,0.5735,114
16,bias,1,1,0.8936000000014901,115
16,bias,1,1,0.13640000000037253,116
16,bias,0,0,0.7192000000011176,117
16,bias,0,0,0.6378000000007451,118
16,bias,1,1,0.7889000000003725,119
16,bias,0,0,0.41609999999962743,120
16,bias,1,1,0.6703000000007451,121
16,bias,0,0,1.5562000000011176,122
16,bias,0,1,1.4498000000007452,123
16,bias,0,0,0.634,124
16,bias,1,1,0.9958000000007452,125
16,bias,1,1,0.4799000000003726,126
16,bias,1,1,0.7655,127
16,bias,1,1,0.8413999999985099,128
16,bias,1,1,0.6695,129
16,bias,0,0,0.7042999999988824,130
16,bias,1,1,0.733,131
16,bias,0,0,0.7744000000003726,132
16,bias,0,1,0.7670999999996275,133
16,bias,1,1,0.7528000000007451,134
16,bias,0,0,1.1502000000011177,135
16,bias,1,1,1.794,136
16,bias,0,1,1.432199999999255,137
16,bias,1,1,0.5997000000011176,138
16,bias,0,0,0.5985999999996274,139
16,bias,1,1,0.7524000000003725,140
16,bias,0,0,0.44730000000074505,141
16,bias,0,1,0.5608999999985099,142
16,bias,1,1,0.5518999999985099,143
16,bias,0,0,0.5335999999996275,144
17,bias,1,0,2.9805,1
17,bias,1,1,2.6490999999940397,2
17,bias,0,1,2.0282999999821185,3
17,bias,1,1,0.7892000000178814,4
17,bias,1,1,0.5901000000238419,5
17,bias,1,1,0.48540000000596045,6
17,bias,0,1,0.5692999999821186,7
17,bias,1,1,0.504300000011921,8
17,bias,0,1,0.5384000000059604,9
17,bias,0,0,0.5305999999940395,10
17,bias,0,1,0.47139999997615817,11
17,bias,0,1,0.44290000000596047,12
17,bias,0,1,0.45719999998807903,13
17,bias,0,1,0.4385,14
17,bias,1,1,0.5535999999940395,15
17,bias,1,1,0.6302000000178813,16
17,bias,1,1,1.016199999988079,17
17,bias,1,1,1.0006999999880792,18
17,bias,0,1,0.482199999988079,19
17,bias,1,1,0.6340999999940395,20
17,bias,0,1,0.7274000000059605,21
17,bias,0,1,0.41530000001192097,22
17,bias,1,1,0.5455999999940395,23
17,bias,0,1,0.5104000000059604,24
17,no_bias,1,0,4.311099999994039,1
17,no_bias,0,1,0.8989000000059605,2
17,no_bias,1,1,0.8429000000059604,3
17,no_bias,1,1,0.9050999999940396,4
17,no_bias,0,1,0.8424000000059605,5
17,no_bias,1,0,0.720300000011921,6
17,no_bias,1,0,0.5462000000178814,7
17,no_bias,0,1,0.445699999988079,8
17,no_bias,0,1,1.7692000000178814,9
17,no_bias,0,1,0.44659999999403954,10
17,no_bias,0,1,0.5005999999940396,11
17,no_bias,0,1,0.5413999999761582,12
17,no_bias,0,1,0.4835999999940395,13
17,no_bias,1,1,0.5,14
17,no_bias,0,1,0.9524000000059604,15
17,no_bias,0,1,0.4540999999940395,16
17,no_bias,0,1,0.5020999999940395,17
17,no_bias,1,1,0.497300000011921,18
17,no_bias,0,1,0.668,19
17,no_bias,1,0,0.45109999999403955,20
17,no_bias,1,0,0.492300000011921,21
17,no_bias,1,0,0.7673999999761582,22
17,no_bias,1,0,0.5797999999821186,23
17,no_bias,1,0,0.4699000000059605,24
17,no_bias,1,0,1.1838000000119209,25
17,no_bias,1,0,1.1459000000059605,26
17,no_bias,1,0,0.48740000000596045,27
17,no_bias,1,0,0.44140000000596047,28
17,no_bias,1,1,0.6833000000119209,29
17,no_bias,1,0,0.6210999999940395,30
17,no_bias,0,1,0.493300000011921,31
17,no_bias,1,0,0.428699999988079,32
17,no_bias,0,1,0.52,33
17,no_bias,1,0,0.4110999999940395,34
17,no_bias,0,1,0.446800000011921,35
17,no_bias,1,0,0.4765,36
17,no_bias,1,0,0.465,37
17,no_bias,0,1,0.45469999998807903,38
17,no_bias,0,1,0.432300000011921,39
17,no_bias,1,0,0.519,40
17,no_bias,0,1,0.4790999999940395,41
17,no_bias,0,1,0.452199999988079,42
17,no_bias,0,1,0.43490000000596046,43
17,no_bias,0,1,0.4675999999940395,44
17,no_bias,0,1,0.658800000011921,45
17,no_bias,1,0,0.4494000000059605,46
17,no_bias,0,1,0.432199999988079,47
17,no_bias,0,1,0.433699999988079,48
17,bias,1,0,1.6397000000178814,25
17,bias,1,1,1.355,26
17,bias,1,1,0.723,27
17,bias,0,1,0.706199999988079,28
17,bias,1,1,0.6088000000119209,29
17,bias,0,1,0.479,30
17,bias,0,1,0.6278000000119209,31
17,bias,1,0,0.48640000000596045,32
17,bias,1,1,0.9195,33
17,bias,0,1,0.5048999999761581,34
17,bias,0,1,0.46169999998807904,35
17,bias,1,0,0.7275999999940396,36
17,bias,1,0,2.008,37
17,bias,0,1,0.593300000011921,38
17,bias,0,1,0.608199999988079,39
17,bias,1,0,1.155,40
17,bias,0,1,0.8636999999880791,41
17,bias,0,1,0.44459999999403954,42
17,bias,0,1,0.4695999999940395,43
17,bias,1,0,0.5259000000059605,44
17,bias,1,0,0.9823000000119207,45
17,bias,0,1,0.49140000000596046,46
17,bias,1,1,1.848699999988079,47
17,bias,0,1,0.4867999999821186,48
17,bias,0,1,0.6530999999940396,49
17,bias,1,1,0.7654000000059604,50
17,bias,0,1,0.48230000001192097,51
17,bias,1,0,0.4720999999940395,52
17,bias,0,1,0.506,53
17,bias,1,1,0.9042999999821186,54
17,bias,0,1,0.442,55
17,bias,0,1,0.6447000000178814,56
17,bias,1,0,0.5761000000238419,57
17,bias,1,0,0.7789000000059605,58
17,bias,1,0,0.682,59
17,bias,1,0,0.6405999999940395,60
17,bias,0,1,0.5985,61
17,bias,0,1,0.5433000000119209,62
17,bias,0,1,0.4917000000178814,63
17,bias,1,0,0.4352999999821186,64
17,bias,0,1,0.6233000000119209,65
17,bias,1,0,0.518800000011921,66
17,bias,1,1,1.451,67
17,bias,1,1,1.3385,68
17,bias,1,0,0.8298000000119209,69
17,bias,0,1,0.47810000002384184,70
17,bias,0,1,0.5285999999940395,71
17,bias,0,1,0.6325999999940395,72
17,no_bias,1,0,0.5035,49
17,no_bias,0,1,0.46979999998211863,50
17,no_bias,1,1,0.7985999999940395,51
17,no_bias,0,1,0.47,52
17,no_bias,1,0,0.6584000000059604,53
17,no_bias,0,1,0.4539000000059605,54
17,no_bias,0,1,0.4587000000178814,55
17,no_bias,0,1,0.419699999988079,56
17,no_bias,1,1,1.1275,57
17,no_bias,1,0,0.8584000000059605,58
17,no_bias,0,1,0.422300000011921,59
17,no_bias,0,1,0.44759999999403954,60
17,no_bias,1,0,0.6955999999940395,61
17,no_bias,1,0,0.402300000011921,62
17,no_bias,0,1,0.4205,63
17,no_bias,0,1,0.466800000011921,64
17,no_bias,1,0,0.6118000000119209,65
17,no_bias,0,1,0.458,66
17,no_bias,1,0,0.4169000000059605,67
17,no_bias,1,1,1.0139000000059604,68
17,no_bias,0,1,0.4079000000059605,69
17,no_bias,1,0,0.39569999998807903,70
17,no_bias,0,1,0.4685999999940395,71
17,no_bias,1,1,0.782800000011921,72
17,bias,0,1,1.7659000000059604,73
17,bias,0,1,0.48740000000596045,74
17,bias,0,1,0.439,75
17,bias,0,1,0.5295999999940395,76
17,bias,1,0,0.6885999999940395,77
17,bias,1,0,0.5495999999940395,78
17,bias,1,0,0.6915999999940395,79
17,bias,0,1,0.5549000000059605,80
17,bias,1,0,0.5680999999940395,81
17,bias,1,0,0.8239000000059604,82
17,bias,0,1,0.5841000000238419,83
17,bias,0,1,0.44539999997615815,84
17,bias,0,1,0.45569999998807903,85
17,bias,1,0,0.5915,86
17,bias,1,0,0.5283999999761582,87
17,bias,0,1,0.471,88
17,bias,0,1,0.4845999999940395,89
17,bias,0,1,0.490800000011921,90
17,bias,1,0,0.533699999988079,91
17,bias,0,1,0.48660000002384185,92
17,bias,1,0,0.7960999999940396,93
17,bias,1,0,0.557,94
17,bias,1,0,0.3975,95
17,bias,1,0,0.4665999999940395,96
17,bias,1,0,2.175,97
17,bias,1,0,1.491,98
17,bias,1,0,0.45839999997615816,99
17,bias,0,1,0.511,100
17,bias,0,1,0.4297000000178814,101
17,bias,1,0,0.4501000000238419,102
17,bias,1,0,0.6095999999940396,103
17,bias,0,1,0.5090999999940395,104
17,bias,1,0,0.5886999999880791,105
17,bias,1,0,0.5491999999880791,106
17,bias,0,1,0.4009000000059605,107
17,bias,0,1,0.4775,108
17,bias,0,1,0.42640000000596046,109
17,bias,0,1,0.444300000011921,110
17,bias,1,1,0.7378000000119209,111
17,bias,0,1,0.440800000011921,112
17,bias,1,1,0.742,113
17,bias,0,1,0.447199999988079,114
17,bias,0,1,0.4575,115
17,bias,1,1,0.6591999999880791,116
17,bias,1,0,0.446,117
17,bias,1,0,0.45919999998807903,118
17,bias,0,1,0.5452000000178814,119
17,bias,0,1,0.3607000000178814,120
17,no_bias,0,1,2.243100000023842,73
17,no_bias,0,1,0.46519999998807904,74
17,no_bias,1,0,0.46,75
17,no_bias,0,1,0.4747000000178814,76
17,no_bias,0,1,0.41780000001192097,77
17,no_bias,1,1,1.0096999999880791,78
17,no_bias,0,1,0.4125999999940395,79
17,no_bias,1,0,0.417,80
17,no_bias,0,1,0.4554000000059605,81
17,no_bias,0,1,0.4744000000059605,82
17,no_bias,1,0,0.4199000000059605,83
17,no_bias,1,0,0.4135999999940395,84
17,no_bias,1,0,0.5612999999821187,85
17,no_bias,1,0,0.47380000001192096,86
17,no_bias,1,0,0.433,87
17,no_bias,0,1,0.5340999999940396,88
17,no_bias,0,1,0.5129000000059605,89
17,no_bias,1,0,0.386,90
17,no_bias,1,0,0.7067999999821186,91
17,no_bias,0,1,0.42080000001192097,92
17,no_bias,1,1,0.8060999999940396,93
17,no_bias,1,0,0.4347000000178814,94
17,no_bias,0,1,0.5385999999940395,95
17,no_bias,0,1,0.141,96
17,no_bias,1,0,0.5738000000119209,97
17,no_bias,1,1,1.2869000000059605,98
17,no_bias,1,0,0.4094000000059605,99
17,no_bias,1,0,0.4562999999821186,100
17,no_bias,0,1,0.4129000000059605,101
17,no_bias,1,0,2.0734000000059605,102
17,no_bias,0,1,0.44039999997615814,103
17,no_bias,1,1,0.8324000000059605,104
17,no_bias,0,1,0.5596999999880791,105
17,no_bias,0,1,0.5302999999821186,106
17,no_bias,0,1,0.503699999988079,107
17,no_bias,1,0,0.428699999988079,108
17,no_bias,0,1,0.415,109
17,no_bias,1,0,0.723300000011921,110
17,no_bias,0,1,0.5072999999821186,111
17,no_bias,0,1,0.492,112
17,no_bias,1,0,0.49540000000596046,113
17,no_bias,0,1,0.441699999988079,114
17,no_bias,1,0,0.564,115
17,no_bias,0,1,0.426199999988079,116
17,no_bias,1,0,0.6584000000059604,117
17,no_bias,1,0,0.6499000000059605,118
17,no_bias,0,1,0.49390000000596046,119
17,no_bias,0,1,0.445199999988079,120
17,no_bias,0,1,0.5035,121
17,no_bias,1,0,0.464800000011921,122
17,no_bias,1,1,0.6774000000059605,123
17,no_bias,0,1,0.460800000011921,124
17,no_bias,1,1,0.8083000000119209,125
17,no_bias,1,1,1.056699999988079,126
17,no_bias,1,0,0.3950999999940395,127
17,no_bias,0,1,0.4725999999940395,128
17,no_bias,1,1,0.6256999999880791,129
17,no_bias,0,1,0.537800000011921,130
17,no_bias,0,1,0.7683000000119209,131
17,no_bias,0,1,0.6900999999940395,132
17,no_bias,0,1,0.40920000001788137,133
17,no_bias,1,1,0.7547000000178814,134
17,no_bias,0,1,0.44109999999403954,135
17,no_bias,0,1,0.4065,136
17,no_bias,1,1,0.640699999988079,137
17,no_bias,1,0,0.5133000000119209,138
17,no_bias,0,1,0.4745999999940395,139
17,no_bias,1,1,0.7316999999880791,140
17,no_bias,1,0,0.9756999999880792,141
17,no_bias,0,1,0.5185999999940395,142
17,no_bias,1,0,0.474,143
17,no_bias,0,1,0.441199999988079,144
17,bias,1,0,0.4730999999940395,121
17,bias,0,1,0.42080000001192097,122
17,bias,0,1,0.414699999988079,123
17,bias,0,1,0.424699999988079,124
17,bias,1,0,0.4165,125
17,bias,1,0,0.47179999998211863,126
17,bias,1,0,0.4262999999821186,127
17,bias,0,1,0.482199999988079,128
17,bias,0,1,0.486800000011921,129
17,bias,1,0,0.5541999999880791,130
17,bias,1,0,0.9649000000059604,131
17,bias,1,1,0.9722000000178814,132
17,bias,0,1,1.1811999999880791,133
17,bias,0,1,0.47760000002384184,134
17,bias,0,1,0.46670000001788137,135
17,bias,1,1,0.817,136
17,bias,0,1,0.4459000000059605,137
17,bias,0,1,0.4535999999940395,138
17,bias,1,0,0.4292000000178814,139
17,bias,0,1,0.4100999999940395,140
17,bias,1,0,0.381300000011921,141
17,bias,1,0,0.4529000000059605,142
17,bias,0,1,0.458800000011921,143
17,bias,1,0,0.8065,144
19,no_bias,0,1,4.684,1
19,no_bias,0,1,0.8251000000238419,2
19,no_bias,0,1,0.6458999999761581,3
19,no_bias,0,1,0.4665,4
19,no_bias,1,0,0.6001000000238419,5
19,no_bias,1,0,0.716199999988079,6
19,no_bias,0,1,0.554800000011921,7
19,no_bias,0,1,0.545,8
19,no_bias,1,1,1.525899999976158,9
19,no_bias,1,1,0.4554000000357628,10
19,no_bias,1,0,0.7352000000476837,11
19,no_bias,0,1,0.6196999999880791,12
19,no_bias,1,0,0.6529000000357628,13
19,no_bias,0,1,0.4849000000357628,14
19,no_bias,0,1,0.4552999999523163,15
19,no_bias,1,0,0.578,16
19,no_bias,0,1,0.529699999988079,17
19,no_bias,1,0,0.40780000001192096,18
19,no_bias,1,0,0.6165,19
19,no_bias,0,1,0.4665,20
19,no_bias,0,1,0.4591000000238419,21
19,no_bias,1,0,0.6215,22
19,no_bias,1,0,1.4065999999642371,23
19,no_bias,1,0,0.5648000000119209,24
19,bias,1,0,2.669600000023842,1
19,bias,0,1,1.1851999999880791,2
19,bias,1,0,0.473699999988079,3
19,bias,1,0,0.33959999996423723,4
19,bias,1,0,0.4542999999523163,5
19,bias,0,1,0.46369999998807904,6
19,bias,1,1,1.1380999999642372,7
19,bias,0,1,0.7021000000238419,8
19,bias,0,1,0.533800000011921,9
19,bias,1,0,0.7100999999642372,10
19,bias,1,0,0.916600000023842,11
19,bias,0,1,0.6245,12
19,bias,1,1,0.461800000011921,13
19,bias,0,1,0.6881000000238419,14
19,bias,1,1,0.9183000000119208,15
19,bias,0,1,0.6306000000238419,16
19,bias,1,0,0.6278000000119209,17
19,bias,1,0,0.5533000000119209,18
19,bias,0,1,0.5530999999642372,19
19,bias,0,1,0.48710000002384185,20
19,bias,0,1,0.39819999998807903,21
19,bias,1,0,0.6128000000119209,22
19,bias,0,1,0.29310000002384184,23
19,bias,0,1,0.3515,24
19,no_bias,1,1,2.5705,25
19,no_bias,1,1,0.4924000000357628,26
19,no_bias,0,1,2.139200000047684,27
19,no_bias,0,1,0.542,28
19,no_bias,1,1,0.4214000000357628,29
19,no_bias,0,1,0.5776000000238418,30
19,no_bias,1,1,0.409199999988079,31
19,no_bias,0,1,0.6198999999761582,32
19,no_bias,1,1,0.406,33
19,no_bias,0,1,0.4644000000357627,34
19,no_bias,1,1,0.3176999999880791,35
19,no_bias,0,0,1.359,36
19,no_bias,0,1,0.8268000000119209,37
19,no_bias,1,1,0.518,38
19,no_bias,0,0,0.636699999988079,39
19,no_bias,1,1,0.444300000011921,40
19,no_bias,1,1,0.3915999999642372,41
19,no_bias,0,1,0.6531000000238418,42
19,no_bias,1,1,0.48479999995231626,43
19,no_bias,1,1,0.4095,44
19,no_bias,0,1,0.451,45
19,no_bias,1,1,0.499800000011921,46
19,no_bias,0,1,0.6438999999761581,47
19,no_bias,0,1,0.5882999999523163,48
19,no_bias,0,1,3.557800000011921,49
19,no_bias,1,1,1.2642000000476834,50
19,no_bias,0,1,0.6638999999761581,51
19,no_bias,0,1,1.4665,52
19,no_bias,0,1,0.6663999999761582,53
19,no_bias,0,1,0.6188000000119209,54
19,no_bias,1,1,0.3533000000119209,55
19,no_bias,0,1,0.3856000000238418,56
19,no_bias,0,1,0.5475,57
19,no_bias,1,1,0.489300000011921,58
19,no_bias,1,1,0.363199999988079,59
19,no_bias,1,1,0.372,60
19,no_bias,0,1,0.5785999999642372,61
19,no_bias,0,1,0.8910999999642372,62
19,no_bias,0,1,0.917100000023842,63
19,no_bias,1,1,0.3714000000357628,64
19,no_bias,1,1,0.529800000011921,65
19,no_bias,1,1,0.486800000011921,66
19,no_bias,1,1,0.496699999988079,67
19,no_bias,1,1,0.41630000001192097,68
19,no_bias,1,1,0.34260000002384183,69
19,no_bias,1,1,0.25939999997615815,70
19,no_bias,0,1,0.496,71
19,no_bias,0,1,0.7668999999761581,72
19,bias,1,0,2.9281999999880792,25
19,bias,1,0,2.3983999999761583,26
19,bias,1,0,0.5423999999761582,27
19,bias,1,0,0.43960000002384186,28
19,bias,0,1,0.788699999988079,29
19,bias,0,1,0.5246000000238419,30
19,bias,0,1,0.429199999988079,31
19,bias,1,0,0.6675,32
19,bias,0,1,0.457300000011921,33
19,bias,0,1,0.477199999988079,34
19,bias,0,1,0.46739999997615816,35
19,bias,0,1,0.421699999988079,36
19,bias,0,1,0.5791000000238419,37
19,bias,1,0,0.5326000000238419,38
19,bias,0,1,0.476199999988079,39
19,bias,1,0,1.319100000023842,40
19,bias,1,0,0.5773000000119209,41
19,bias,0,1,0.620300000011921,42
19,bias,1,0,0.5221000000238418,43
19,bias,1,0,1.2271999999880792,44
19,bias,1,1,1.918899999976158,45
19,bias,0,1,0.602,46
19,bias,0,1,0.6354000000357628,47
19,bias,1,0,0.6673000000119209,48
19,bias,0,1,1.946600000023842,49
19,bias,1,1,1.332699999988079,50
19,bias,0,1,0.6805,51
19,bias,1,1,0.4858999999761581,52
19,bias,1,1,0.38789999997615815,53
19,bias,1,1,0.3508000000119209,54
19,bias,1,1,0.421800000011921,55
19,bias,1,1,0.385199999988079,56
19,bias,0,1,0.6016999999880791,57
19,bias,0,1,0.7016000000238418,58
19,bias,0,1,0.6361999999880791,59
19,bias,1,0,1.0575999999642371,60
19,bias,0,1,0.49360000002384186,61
19,bias,1,1,0.3062000000476837,62
19,bias,0,1,0.7237000000476838,63
19,bias,0,1,0.411,64
19,bias,0,1,0.4521000000238419,65
19,bias,0,1,0.45389999997615815,66
19,bias,0,1,0.3965999999642372,67
19,bias,1,1,0.495199999988079,68
19,bias,1,1,0.3962999999523163,69
19,bias,0,1,0.8116000000238418,70
19,bias,1,1,0.305,71
19,bias,1,1,0.41979999995231626,72
19,no_bias,1,0,2.2515,73
19,no_bias,0,1,1.084699999988079,74
19,no_bias,1,0,0.777,75
19,no_bias,1,0,0.950600000023842,76
19,no_bias,0,1,0.5516000000238419,77
19,no_bias,1,0,0.39969999998807904,78
19,no_bias,1,0,0.32680000001192094,79
19,no_bias,0,1,0.7234000000357628,80
19,no_bias,1,0,0.6908999999761581,81
19,no_bias,0,1,0.49710000002384186,82
19,no_bias,1,0,0.47310000002384184,83
19,no_bias,1,0,0.6226999999880791,84
19,no_bias,0,1,0.442800000011921,85
19,no_bias,0,1,0.4878999999761581,86
19,no_bias,0,1,0.5425999999642372,87
19,no_bias,1,1,0.4639000000357627,88
19,no_bias,0,1,0.452300000011921,89
19,no_bias,1,1,0.5644000000357627,90
19,no_bias,0,1,0.8446999999880791,91
19,no_bias,0,1,0.461300000011921,92
19,no_bias,0,1,0.533,93
19,no_bias,0,1,0.5325,94
19,no_bias,1,1,0.454,95
19,no_bias,1,0,0.5766999999880791,96
19,no_bias,0,1,2.268399999976158,97
19,no_bias,0,1,0.5334000000357628,98
19,no_bias,1,1,0.466800000011921,99
19,no_bias,1,1,0.3185,100
19,no_bias,0,1,0.7464000000357628,101
19,no_bias,1,1,0.4394000000357628,102
19,no_bias,1,1,0.43289999997615813,103
19,no_bias,0,1,0.6312999999523163,104
19,no_bias,0,1,0.5381000000238418,105
19,no_bias,0,1,0.5563000000119209,106
19,no_bias,0,1,0.6458999999761581,107
19,no_bias,1,1,0.8819000000357627,108
19,no_bias,0,1,0.8682000000476837,109
19,no_bias,0,1,0.3970999999642372,110
19,no_bias,0,1,0.5001000000238418,111
19,no_bias,1,1,0.5105,112
19,no_bias,1,0,0.6998000000119209,113
19,no_bias,0,1,0.5321999999880791,114
19,no_bias,1,1,0.5879000000357628,115
19,no_bias,1,1,0.3510999999642372,116
19,no_bias,1,1,0.5428999999761581,117
19,no_bias,0,1,0.779800000011921,118
19,no_bias,1,1,0.33370000004768374,119
19,no_bias,1,0,3.466599999964237,120
19,bias,0,1,1.658600000023842,73
19,bias,1,1,0.6014000000357628,74
19,bias,1,0,1.745600000023842,75
19,bias,0,1,0.5579000000357628,76
19,bias,0,1,0.5672999999523163,77
19,bias,1,1,0.8221000000238419,78
19,bias,0,1,0.6451000000238418,79
19,bias,0,1,0.5123000000119209,80
19,bias,0,1,0.40830000001192096,81
19,bias,1,0,1.114,82
