cue,direction,practice_block_loop.thisRepN,practice_block_loop.thisTrialN,practice_block_loop.thisN,practice_block_loop.thisIndex,main_blocks_loop.thisRepN,main_blocks_loop.thisTrialN,main_blocks_loop.thisN,main_blocks_loop.thisIndex,static_isi.started,static_isi.stopped,fixation_pre.started,fixation_pre.stopped,image.started,image.stopped,fixation_post.started,fixation_post.stopped,dots_background.started,dots_background.stopped,dots_stimulus.started,dots_stimulus.stopped,dots_keyboard_response.keys,dots_keyboard_response.rt,dots_keyboard_response.started,dots_keyboard_response.stopped,feedback_text.started,feedback_text.stopped,instruction_main_text.started,instruction_main_text.stopped,instruction_main_keyboard_response.keys,instruction_main_keyboard_response.rt,instruction_main_keyboard_response.started,instruction_main_keyboard_response.stopped,Pseudonym,date,expName,psychopyVersion,frameRate,
none,right,0,0,0,5,,,,,0.00503160001244396,1.005031600012444,88.45301939995261,None,89.75786719995085,None,90.6807963999454,None,95.20652069995413,None,95.20652069995413,None,f,0.7613215000019409,95.20652069995413,None,96.02556869998807,None,,,,,,,VPN02,2022_Mar_01_2208,rdk-discrimination,2021.2.3,60.03269378841237,
left,right,0,1,1,2,,,,,0.010260450013447553,1.0102604500134476,97.51306129997829,None,97.86668889998691,None,98.86439679999603,None,103.3681620999705,None,103.3681620999705,None,f,0.8240392999723554,103.3681620999705,None,104.21550209994894,None,,,,,,,VPN02,2022_Mar_01_2208,rdk-discrimination,2021.2.3,60.03269378841237,
none,left,0,2,2,4,,,,,0.012680949992500246,1.0126809499925002,105.70965079998132,None,106.91405479999958,None,107.91426999995019,None,112.91817139997147,None,112.91817139997147,None,j,0.6685986000229605,112.91817139997147,None,113.60741239995696,None,,,,,,,VPN02,2022_Mar_01_2208,rdk-discrimination,2021.2.3,60.03269378841237,
right,left,0,3,3,3,,,,,0.012231850007083267,1.0122318500070833,115.09298119996674,None,115.19713369995588,None,116.19741839997005,None,120.70125679997727,None,120.70125679997727,None,f,0.8489373999764211,120.70125679997727,None,121.58865299995523,None,,,,,,,VPN02,2022_Mar_01_2208,rdk-discrimination,2021.2.3,60.03269378841237,
right,right,0,4,4,1,,,,,0.012811149994377047,1.012811149994377,123.07570489996579,None,123.43278179998742,None,124.43067309999606,None,127.83168289996684,None,127.83168289996684,None,f,0.6638492000056431,127.83168289996684,None,128.52451519999886,None,,,,,,,VPN02,2022_Mar_01_2208,rdk-discrimination,2021.2.3,60.03269378841237,
left,left,0,5,5,0,,,,,0.012769649911206216,1.0127696499112062,130.00904759997502,None,131.21384769998258,None,132.2138504999457,None,136.21471429994563,None,136.21471429994563,None,j,1.0188078999635763,136.21471429994563,None,137.2491065999493,None,,,,,,,VPN02,2022_Mar_01_2208,rdk-discrimination,2021.2.3,60.03269378841237,
,,,,,,,,,,,,,,,,,,,,,,,,,,,,137.76390919997357,None,space,113.71830869995756,137.76390919997357,None,VPN02,2022_Mar_01_2208,rdk-discrimination,2021.2.3,60.03269378841237,
right,right,,,,,0,0,0,30,0.005053100001532584,1.0050531000015326,252.50033129996154,None,252.86573979997775,None,253.86283589998493,None,257.2665866999887,None,257.2665866999887,None,j,0.4400558000197634,257.2665866999887,None,257.74156669998774,None,,,,,,,VPN02,2022_Mar_01_2208,rdk-discrimination,2021.2.3,60.03269378841237,
none,left,,,,,0,1,1,42,0.011282449995633215,1.0112824499956332,259.22571919998154,None,259.32996279996587,None,260.3293469999917,None,264.830547199992,None,264.830547199992,None,f,0.7903428999707103,264.830547199992,None,265.64954319997923,None,,,,,,,VPN02,2022_Mar_01_2208,rdk-discrimination,2021.2.3,60.03269378841237,
none,right,,,,,0,2,2,78,0.012641050037927926,1.012641050037928,267.1423912999453,None,267.2462510999758,None,268.2459599999711,None,272.2475741999806,None,272.2475741999806,None,j,0.5165028999908827,272.2475741999806,None,272.7893366999924,None,,,,,,,VPN02,2022_Mar_01_2208,rdk-discrimination,2021.2.3,60.03269378841237,
left,left,,,,,0,3,3,9,0.012749249988701195,1.0127492499887012,274.2745119999745,None,274.3789284999948,None,275.3794140999671,None,279.3803679999546,None,279.3803679999546,None,j,0.7106023000087589,279.3803679999546,None,280.1236289999797,None,,,,,,,VPN02,2022_Mar_01_2208,rdk-discrimination,2021.2.3,60.03269378841237,
right,left,,,,,0,4,4,36,0.012567249999847263,1.0125672499998473,281.6088781999424,None,281.96399649995146,None,282.9628496999503,None,286.36673719994724,None,286.36673719994724,None,j,1.3640250000171363,286.36673719994724,None,287.7491500999895,None,,,,,,,VPN02,2022_Mar_01_2208,rdk-discrimination,2021.2.3,60.03269378841237,
left,left,,,,,0,5,5,2,0.01292915001977235,1.0129291500197724,289.24104429996805,None,289.3469928999548,None,290.3457307999488,None,294.8468554999563,None,294.8468554999563,None,f,0.6547447000048123,294.8468554999563,None,295.54071199998725,None,,,,,,,VPN02,2022_Mar_01_2208,rdk-discrimination,2021.2.3,60.03269378841237,
none,left,,,,,0,6,6,44,0.012946349917910993,1.012946349917911,297.02518579998286,None,297.3791864999803,None,298.37933019996854,None,303.3807744999649,None,303.3807744999649,None,j,0.4346572000067681,303.3807744999649,None,303.8390618999838,None,,,,,,,VPN02,2022_Mar_01_2208,rdk-discrimination,2021.2.3,60.03269378841237,
none,left,,,,,0,7,7,49,0.01277505001053214,1.0127750500105321,305.3241874999949,None,306.12906239996664,None,307.12914719997207,None,310.5300789999892,None,310.5300789999892,None,f,1.4371794000035152,310.5300789999892,None,312.00740719999885,None,,,,,,,VPN02,2022_Mar_01_2208,rdk-discrimination,2021.2.3,60.03269378841237,
left,left,,,,,0,8,8,10,0.012327849981375039,1.012327849981375,313.492076799972,None,314.701437599957,None,315.69599769997876,None,320.19660909997765,None,320.19660909997765,None,f,0.9649269999936223,320.19660909997765,None,321.18159749999177,None,,,,,,,VPN02,2022_Mar_01_2208,rdk-discrimination,2021.2.3,60.03269378841237,
left,left,,,,,0,9,9,1,0.012719449994619936,1.01271944999462,322.6744138999493,None,323.4809568999917,None,324.4788337999489,None,329.4798562999931,None,329.4798562999931,None,f,0.4271885000052862,329.4798562999931,None,329.92908039997565,None,,,,,,,VPN02,2022_Mar_01_2208,rdk-discrimination,2021.2.3,60.03269378841237,
none,left,,,,,0,10,10,57,0.012550149986054748,1.0125501499860547,331.40813799999887,None,331.7620394999976,None,332.7637413999764,None,337.2800476999837,None,337.2800476999837,None,j,0.6363502999884076,337.2800476999837,None,337.95715759997256,None,,,,,,,VPN02,2022_Mar_01_2208,rdk-discrimination,2021.2.3,60.03269378841237,
none,left,,,,,0,11,11,41,0.01212024997221306,1.012120249972213,339.4421552999993,None,339.7955531999469,None,340.79531939997105,None,344.19694439996965,None,344.19694439996965,None,f,0.8580114999786019,344.19694439996965,None,345.0906511999783,None,,,,,,,VPN02,2022_Mar_01_2208,rdk-discrimination,2021.2.3,60.03269378841237,
none,left,,,,,0,12,12,54,0.011937849980313331,1.0119378499803133,346.5747777999495,None,346.92871759994887,None,347.92876599996816,None,352.429831299989,None,352.429831299989,None,j,0.5540657000383362,352.429831299989,None,353.02498299995204,None,,,,,,,VPN02,2022_Mar_01_2208,rdk-discrimination,2021.2.3,60.03269378841237,
left,left,,,,,0,13,13,8,0.012113649980165064,1.012113649980165,354.509132999985,None,354.61363069998333,None,355.6119122999953,None,360.61301069997717,None,360.61301069997717,None,f,0.5805077000404708,360.61301069997717,None,361.22447879996616,None,,,,,,,VPN02,2022_Mar_01_2208,rdk-discrimination,2021.2.3,60.03269378841237,
right,right,,,,,0,14,14,19,0.012720549886580557,1.0127205498865806,362.70693229994504,None,363.51479769998696,None,364.51211109996075,None,369.51577829994494,None,369.51577829994494,None,f,0.5363865999970585,369.51577829994494,None,370.0842344999546,None,,,,,,,VPN02,2022_Mar_01_2208,rdk-discrimination,2021.2.3,60.03269378841237,
none,left,,,,,0,15,15,40,0.012275949935428798,1.0122759499354288,371.5741971999523,None,372.7785058999434,None,373.7785765999579,None,378.7847980999504,None,378.7847980999504,None,j,0.29490069998428226,378.7847980999504,None,379.1001141999732,None,,,,,,,VPN02,2022_Mar_01_2208,rdk-discrimination,2021.2.3,60.03269378841237,
none,right,,,,,0,16,16,77,0.012753249960951507,1.0127532499609515,380.5905148999882,None,381.7950786999427,None,382.7950346999569,None,386.79617789998883,None,386.79617789998883,None,j,0.6438543000258505,386.79617789998883,None,387.47343259997433,None,,,,,,,VPN02,2022_Mar_01_2208,rdk-discrimination,2021.2.3,60.03269378841237,
left,right,,,,,0,17,17,32,0.012821350013837218,1.0128213500138372,388.9575455999584,None,389.3126983999973,None,390.311764699989,None,394.8129004999646,None,394.8129004999646,None,j,0.8137877000262961,394.8129004999646,None,395.6476019999827,None,,,,,,,VPN02,2022_Mar_01_2208,rdk-discrimination,2021.2.3,60.03269378841237,
right,right,,,,,0,18,18,24,0.01116304995957762,1.0111630499595776,397.1425645999843,None,398.3450269999448,None,399.345041499997,None,404.34596139995847,None,404.34596139995847,None,j,0.34885180002311245,404.34596139995847,None,404.71376289997716,None,,,,,,,VPN02,2022_Mar_01_2208,rdk-discrimination,2021.2.3,60.03269378841237,
none,right,,,,,0,19,19,69,0.012661450018640608,1.0126614500186406,406.2069476999459,None,407.4117903999868,None,408.4113717999426,None,412.9125471999869,None,412.9125471999869,None,j,0.5316210000310093,412.9125471999869,None,413.4650873999926,None,,,,,,,VPN02,2022_Mar_01_2208,rdk-discrimination,2021.2.3,60.03269378841237,
none,left,,,,,0,20,20,58,0.012488650041632354,1.0124886500416324,414.95708859997103,None,415.3115331999725,None,416.3115051999921,None,420.3128719999804,None,420.3128719999804,None,j,0.5780289000249468,420.3128719999804,None,420.9221569999936,None,,,,,,,VPN02,2022_Mar_01_2208,rdk-discrimination,2021.2.3,60.03269378841237,
left,right,,,,,0,21,21,34,0.012793949979823083,1.012793949979823,422.40702269994654,None,423.61889599997085,None,424.6117860999657,None,429.6128749999916,None,429.6128749999916,None,j,0.5578764999518171,429.6128749999916,None,430.2099209999433,None,,,,,,,VPN02,2022_Mar_01_2208,rdk-discrimination,2021.2.3,60.03269378841237,
right,left,,,,,0,22,22,39,0.010800749994814396,1.0108007499948144,431.693756499968,None,431.7944786999724,None,432.79474009998376,None,436.19575249997433,None,436.19575249997433,None,j,0.9168561000260524,436.19575249997433,None,437.1435703999596,None,,,,,,,VPN02,2022_Mar_01_2208,rdk-discrimination,2021.2.3,60.03269378841237,
none,right,,,,,0,23,23,73,0.012560850009322166,1.0125608500093222,438.6237345999689,None,438.98083619994577,None,439.9778747999808,None,444.4788289999706,None,444.4788289999706,None,f,0.4669658000348136,444.4788289999706,None,444.9643567999592,None,,,,,,,VPN02,2022_Mar_01_2208,rdk-discrimination,2021.2.3,60.03269378841237,
left,left,,,,,0,24,24,11,0.012395350029692054,1.012395350029692,446.4578433999559,None,446.8142486999859,None,447.81130479997955,None,452.3124277999741,None,452.3124277999741,None,f,0.6275825000484474,452.3124277999741,None,452.97944039996946,None,,,,,,,VPN02,2022_Mar_01_2208,rdk-discrimination,2021.2.3,60.03269378841237,
none,right,,,,,0,25,25,71,0.011860649974551052,1.011860649974551,454.4754928999464,None,455.67769389995374,None,456.67791769996984,None,460.0787885999889,None,460.0787885999889,None,f,0.6354776999796741,460.0787885999889,None,460.73418309999397,None,,,,,,,VPN02,2022_Mar_01_2208,rdk-discrimination,2021.2.3,60.03269378841237,
right,right,,,,,0,26,26,28,0.01203284994699061,1.0120328499469906,462.2241368999821,None,463.02764659997774,None,464.0277874999447,None,469.0292595999781,None,469.0292595999781,None,j,1.0510135000222363,469.0292595999781,None,470.1103842999437,None,,,,,,,VPN02,2022_Mar_01_2208,rdk-discrimination,2021.2.3,60.03269378841237,
left,left,,,,,0,27,27,13,0.011943350022193044,1.011943350022193,471.5909531999496,None,471.6943455999717,None,472.694564699952,None,476.69531179999467,None,476.69531179999467,None,f,0.6527483999961987,476.69531179999467,None,477.3818204999552,None,,,,,,,VPN02,2022_Mar_01_2208,rdk-discrimination,2021.2.3,60.03269378841237,
left,left,,,,,0,28,28,15,0.011815949983429164,1.0118159499834292,478.87425659998553,None,478.9775926999864,None,479.977785199997,None,483.9788580999593,None,483.9788580999593,None,f,0.7581636999966577,483.9788580999593,None,484.76699509995524,None,,,,,,,VPN02,2022_Mar_01_2208,rdk-discrimination,2021.2.3,60.03269378841237,
right,right,,,,,0,29,29,17,0.011896850017365068,1.011896850017365,486.25786179996794,None,487.06254519999493,None,488.06096979998983,None,492.5620262999437,None,492.5620262999437,None,j,0.9648193000466563,492.5620262999437,None,493.54689399997005,None,,,,,,,VPN02,2022_Mar_01_2208,rdk-discrimination,2021.2.3,60.03269378841237,
none,left,,,,,0,30,30,56,0.012363449903205037,1.012363449903205,495.040205999976,None,495.14434719999554,None,496.14398309995886,None,499.5462358999648,None,499.5462358999648,None,j,0.35226509999483824,499.5462358999648,None,499.92523809999693,None,,,,,,,VPN02,2022_Mar_01_2208,rdk-discrimination,2021.2.3,60.03269378841237,
none,left,,,,,0,31,31,45,0.012242449971381575,1.0122424499713816,501.4076007999829,None,502.2122856999631,None,503.21081699995557,None,507.2118812999688,None,507.2118812999688,None,f,0.9360132999718189,507.2118812999688,None,508.18901319999713,None,,,,,,,VPN02,2022_Mar_01_2208,rdk-discrimination,2021.2.3,60.03269378841237,
right,right,,,,,0,32,32,23,0.012726949993520975,1.012726949993521,509.67246709996834,None,510.48024509998504,None,511.47756359999767,None,515.9792644999688,None,515.9792644999688,None,j,0.48043609998421744,515.9792644999688,None,516.4819505999913,None,,,,,,,VPN02,2022_Mar_01_2208,rdk-discrimination,2021.2.3,60.03269378841237,
none,right,,,,,0,33,33,63,0.012684650020673871,1.0126846500206739,517.9728904999793,None,518.3273235999513,None,519.3273359999876,None,522.7282411999768,None,522.7282411999768,None,j,0.7293498999788426,522.7282411999768,None,523.4796038999921,None,,,,,,,VPN02,2022_Mar_01_2208,rdk-discrimination,2021.2.3,60.03269378841237,
none,left,,,,,0,34,34,46,0.012207049992866814,1.0122070499928668,524.9733503999887,None,526.1786004999885,None,527.1774514999706,None,531.6785396999912,None,531.6785396999912,None,f,0.5634759999811649,531.6785396999912,None,532.2644604999805,None,,,,,,,VPN02,2022_Mar_01_2208,rdk-discrimination,2021.2.3,60.03269378841237,
right,right,,,,,0,35,35,21,0.012733849987853318,1.0127338499878533,533.7564010999631,None,533.8603073999984,None,534.8605305999517,None,538.261534499994,None,538.261534499994,None,f,0.7663097000331618,538.261534499994,None,539.0532543999725,None,,,,,,,VPN02,2022_Mar_01_2208,rdk-discrimination,2021.2.3,60.03269378841237,
left,left,,,,,0,36,36,7,0.012733150040730834,1.0127331500407308,540.5390627999441,None,540.8950451999553,None,541.8938338999869,None,546.3950342999888,None,546.3950342999888,None,j,0.3109379999805242,546.3950342999888,None,546.7321558999829,None,,,,,,,VPN02,2022_Mar_01_2208,rdk-discrimination,2021.2.3,60.03269378841237,
none,left,,,,,0,37,37,48,0.011965949961449951,1.01196594996145,548.2236532999668,None,549.0269666999811,None,550.033105999988,None,553.4446813999675,None,553.4446813999675,None,f,0.9196097999811172,553.4446813999675,None,554.4114981999737,None,,,,,,,VPN02,2022_Mar_01_2208,rdk-discrimination,2021.2.3,60.03269378841237,
none,right,,,,,0,38,38,66,0.011552050011232495,1.0115520500112325,555.9071139999432,None,556.7140695999842,None,557.7104300999781,None,561.7116269999533,None,561.7116269999533,None,j,0.6290194999892265,561.7116269999533,None,562.3708846999798,None,,,,,,,VPN02,2022_Mar_01_2208,rdk-discrimination,2021.2.3,60.03269378841237,
right,right,,,,,0,39,39,26,0.012686450034379959,1.01268645003438,563.8566545999493,None,565.0626379999449,None,566.0601739999838,None,569.4614173999871,None,569.4614173999871,None,j,0.4292259000358172,569.4614173999871,None,569.9131055999896,None,,,,,,,VPN02,2022_Mar_01_2208,rdk-discrimination,2021.2.3,60.03269378841237,
none,right,,,,,0,40,40,76,0.01171734998933971,1.0117173499893397,571.4066787999473,None,571.5101482999744,None,572.5102953999885,None,576.5113061999436,None,576.5113061999436,None,f,1.227693699998781,576.5113061999436,None,577.771142099984,None,,,,,,,VPN02,2022_Mar_01_2208,rdk-discrimination,2021.2.3,60.03269378841237,
none,right,,,,,0,41,41,64,0.012754950032103807,1.0127549500321038,579.2560370999854,None,579.3602907999884,None,580.3600877999561,None,584.8611464999849,None,584.8611464999849,None,j,0.5674845000030473,584.8611464999849,None,585.4569959999644,None,,,,,,,VPN02,2022_Mar_01_2208,rdk-discrimination,2021.2.3,60.03269378841237,
none,left,,,,,0,42,42,51,0.013444049982354045,1.013444049982354,586.9374981999863,None,587.7431759999599,None,588.7434499999508,None,593.2445633999887,None,593.2445633999887,None,f,0.5943876999663189,593.2445633999887,None,593.8598605999723,None,,,,,,,VPN02,2022_Mar_01_2208,rdk-discrimination,2021.2.3,60.03269378841237,
none,right,,,,,0,43,43,79,0.011429650010541081,1.011429650010541,595.3405534999911,None,595.6932696999866,None,596.6933182999492,None,600.6943222999689,None,600.6943222999689,None,j,0.4441468000295572,600.6943222999689,None,601.1596038999851,None,,,,,,,VPN02,2022_Mar_01_2208,rdk-discrimination,2021.2.3,60.03269378841237,
none,right,,,,,0,44,44,74,0.012763949984218925,1.012763949984219,602.6389787999797,None,603.8436362999491,None,604.843435399991,None,608.2466400999692,None,608.2466400999692,None,f,0.7100658999988809,608.2466400999692,None,608.9982457999722,None,,,,,,,VPN02,2022_Mar_01_2208,rdk-discrimination,2021.2.3,60.03269378841237,
right,right,,,,,0,45,45,18,0.012789650005288422,1.0127896500052884,610.4891411999706,None,611.2989752999856,None,612.2942934999592,None,615.6943028999958,None,615.6943028999958,None,j,0.6847726000123657,615.6943028999958,None,616.409208899946,None,,,,,,,VPN02,2022_Mar_01_2208,rdk-discrimination,2021.2.3,60.03269378841237,
left,right,,,,,0,46,46,35,0.012458349985536188,1.0124583499855362,617.889216999989,None,618.2452453999431,None,619.2433532999712,None,622.644050999952,None,622.644050999952,None,f,0.7665446999599226,622.644050999952,None,623.4383862999966,None,,,,,,,VPN02,2022_Mar_01_2208,rdk-discrimination,2021.2.3,60.03269378841237,
none,left,,,,,0,47,47,52,0.01180614996701479,1.0118061499670148,624.9236786999973,None,625.730115399987,None,626.7262653999496,None,630.1277215999435,None,630.1277215999435,None,j,0.5932713999645784,630.1277215999435,None,630.7490564999753,None,,,,,,,VPN02,2022_Mar_01_2208,rdk-discrimination,2021.2.3,60.03269378841237,
left,left,,,,,0,48,48,4,0.011698350019287318,1.0116983500192873,632.2411785000004,None,633.4427292999462,None,634.4431979999645,None,638.4445147999795,None,638.4445147999795,None,f,0.6115279000368901,638.4445147999795,None,639.0856719999574,None,,,,,,,VPN02,2022_Mar_01_2208,rdk-discrimination,2021.2.3,60.03269378841237,
right,left,,,,,0,49,49,37,0.01280635001603514,1.0128063500160351,640.5718079999788,None,640.9303174999659,None,641.9263252999517,None,645.9278149999445,None,645.9278149999445,None,j,0.7007107000099495,645.9278149999445,None,646.660971299978,None,,,,,,,VPN02,2022_Mar_01_2208,rdk-discrimination,2021.2.3,60.03269378841237,
none,left,,,,,0,50,50,50,0.012711749994195998,1.012711749994196,648.1566462999908,None,648.960712799977,None,649.9597703999607,None,654.4605619999929,None,654.4605619999929,None,f,0.5137634999700822,654.4605619999929,None,655.0094092999934,None,,,,,,,VPN02,2022_Mar_01_2208,rdk-discrimination,2021.2.3,60.03269378841237,
left,left,,,,,0,51,51,12,0.011213249992579222,1.0112132499925792,656.4892749999999,None,656.8488364999648,None,657.8427361999638,None,661.8442084999988,None,661.8442084999988,None,None,,661.8442084999988,None,663.3608012999757,None,,,,,,,VPN02,2022_Mar_01_2208,rdk-discrimination,2021.2.3,60.03269378841237,
none,right,,,,,0,52,52,62,0.01430244994116947,1.0143024499411695,664.8363128999481,None,666.0484845999745,None,667.0431036999798,None,671.5440344999661,None,671.5440344999661,None,j,0.28592550003668293,671.5440344999661,None,671.8756881999434,None,,,,,,,VPN02,2022_Mar_01_2208,rdk-discrimination,2021.2.3,60.03269378841237,
none,right,,,,,0,53,53,75,0.012400950014125556,1.0124009500141256,673.3555248999619,None,673.4595512999804,None,674.459375699982,None,677.8609455999685,None,677.8609455999685,None,f,0.44016120000742376,677.8609455999685,None,678.3398254999775,None,,,,,,,VPN02,2022_Mar_01_2208,rdk-discrimination,2021.2.3,60.03269378841237,
none,right,,,,,0,54,54,65,0.011706050019711256,1.0117060500197113,679.82283249998,None,681.0275045999442,None,682.0260647999821,None,687.0276674999623,None,687.0276674999623,None,j,0.4329089000239037,687.0276674999623,None,687.4942381999572,None,,,,,,,VPN02,2022_Mar_01_2208,rdk-discrimination,2021.2.3,60.03269378841237,
left,left,,,,,0,55,55,3,0.012171850015874952,1.012171850015875,688.9890039999736,None,689.0923474999727,None,690.0924739999464,None,694.5952362999669,None,694.5952362999669,None,f,0.30222460004733875,694.5952362999669,None,694.9278499999782,None,,,,,,,VPN02,2022_Mar_01_2208,rdk-discrimination,2021.2.3,60.03269378841237,
right,right,,,,,0,56,56,27,0.012403949978761375,1.0124039499787614,696.4227928999462,None,697.6291607999592,None,698.6260780999437,None,703.6291137999506,None,703.6291137999506,None,j,0.4642420000163838,703.6291137999506,None,704.1134544999804,None,,,,,,,VPN02,2022_Mar_01_2208,rdk-discrimination,2021.2.3,60.03269378841237,
none,left,,,,,0,57,57,55,0.013006849971134216,1.0130068499711342,705.6049148999737,None,705.7091788999969,None,706.7090504999505,None,711.7103913999745,None,711.7103913999745,None,j,0.6736989000346512,711.7103913999745,None,712.4272220999701,None,,,,,,,VPN02,2022_Mar_01_2208,rdk-discrimination,2021.2.3,60.03269378841237,
right,right,,,,,0,58,58,22,0.012205449980683625,1.0122054499806836,713.9063913999707,None,714.7106817999738,None,715.7090406999923,None,720.2099261999829,None,720.2099261999829,None,j,0.6674622999853455,720.2099261999829,None,720.9090396999964,None,,,,,,,VPN02,2022_Mar_01_2208,rdk-discrimination,2021.2.3,60.03269378841237,
right,right,,,,,0,59,59,29,0.011871750000864267,1.0118717500008643,722.3905728999525,None,723.195895199955,None,724.1924389999476,None,729.1938798999763,None,729.1938798999763,None,f,0.5179993000347167,729.1938798999763,None,729.741556199966,None,,,,,,,VPN02,2022_Mar_01_2208,rdk-discrimination,2021.2.3,60.03269378841237,
none,right,,,,,0,60,60,68,0.012119150022044778,1.0121191500220448,731.2243677999941,None,732.4287474999437,None,733.4256478999741,None,738.4267206999939,None,738.4267206999939,None,j,0.47543719998793676,738.4267206999939,None,738.9486200999818,None,,,,,,,VPN02,2022_Mar_01_2208,rdk-discrimination,2021.2.3,60.03269378841237,
right,right,,,,,0,61,61,20,0.012247450009454042,1.012247450009454,740.4384330999455,None,741.6443784999428,None,742.6422549999552,None,747.1435332999681,None,747.1435332999681,None,f,0.4760113999946043,747.1435332999681,None,747.6578106999514,None,,,,,,,VPN02,2022_Mar_01_2208,rdk-discrimination,2021.2.3,60.03269378841237,
right,right,,,,,0,62,62,25,0.011592049966566265,1.0115920499665663,749.1390369999572,None,749.4945446999627,None,750.4924731999636,None,754.996123799996,None,754.996123799996,None,j,0.6430213999701664,754.996123799996,None,755.6789084999473,None,,,,,,,VPN02,2022_Mar_01_2208,rdk-discrimination,2021.2.3,60.03269378841237,
none,right,,,,,0,63,63,67,0.011262049956712872,1.0112620499567129,757.1726055999752,None,757.2752158999792,None,758.2754233999876,None,762.7764774999814,None,762.7764774999814,None,f,0.3792403999832459,762.7764774999814,None,763.1908956999541,None,,,,,,,VPN02,2022_Mar_01_2208,rdk-discrimination,2021.2.3,60.03269378841237,
left,right,,,,,0,64,64,33,0.012747850036248565,1.0127478500362486,764.6711001999793,None,765.0277631999925,None,766.02544269996,None,770.5268727999646,None,770.5268727999646,None,j,0.41753640002571046,770.5268727999646,None,770.9808292999514,None,,,,,,,VPN02,2022_Mar_01_2208,rdk-discrimination,2021.2.3,60.03269378841237,
none,left,,,,,0,65,65,59,0.012141149956732988,1.012141149956733,772.4717566999607,None,772.8251376999542,None,773.8250875999802,None,777.2268784999615,None,777.2268784999615,None,f,0.5739463000209071,777.2268784999615,None,777.8276384999626,None,,,,,,,VPN02,2022_Mar_01_2208,rdk-discrimination,2021.2.3,60.03269378841237,
none,right,,,,,0,66,66,72,0.012267149984836578,1.0122671499848366,779.3095527999685,None,780.509898999997,None,781.5089915999561,None,784.9098915999639,None,784.9098915999639,None,j,0.5149762000073679,784.9098915999639,None,785.445089099987,None,,,,,,,VPN02,2022_Mar_01_2208,rdk-discrimination,2021.2.3,60.03269378841237,
left,left,,,,,0,67,67,0,0.012256849964614958,1.012256849964615,786.938769899949,None,788.1444113999605,None,789.1418906999752,None,794.1427807,None,794.1427807,None,f,0.6492483000038192,794.1427807,None,794.8185560999555,None,,,,,,,VPN02,2022_Mar_01_2208,rdk-discrimination,2021.2.3,60.03269378841237,
none,left,,,,,0,68,68,43,0.01254674996016547,1.0125467499601655,796.3048398999963,None,797.5086130999844,None,798.5083687999868,None,801.9132519999985,None,801.9132519999985,None,j,0.5753902000142261,801.9132519999985,None,802.5216291999677,None,,,,,,,VPN02,2022_Mar_01_2208,rdk-discrimination,2021.2.3,60.03269378841237,
left,left,,,,,0,69,69,6,0.011755249986890703,1.0117552499868907,804.0063703999622,None,804.3616335999686,None,805.3584883999429,None,809.8592266999767,None,809.8592266999767,None,f,0.32927280000876635,809.8592266999767,None,810.2254633999546,None,,,,,,,VPN02,2022_Mar_01_2208,rdk-discrimination,2021.2.3,60.03269378841237,
none,right,,,,,0,70,70,60,0.012514049944002181,1.0125140499440022,811.7048326999648,None,812.9082853999571,None,813.9082636999665,None,817.9098060999531,None,817.9098060999531,None,j,0.5147924000048079,817.9098060999531,None,818.4449733999791,None,,,,,,,VPN02,2022_Mar_01_2208,rdk-discrimination,2021.2.3,60.03269378841237,
right,right,,,,,0,71,71,31,0.011702649993821979,1.011702649993822,819.9375212999876,None,820.042665099958,None,821.0415480999509,None,825.0425603999756,None,825.0425603999756,None,j,0.8318951000110246,825.0425603999756,None,825.8960318999598,None,,,,,,,VPN02,2022_Mar_01_2208,rdk-discrimination,2021.2.3,60.03269378841237,
none,left,,,,,0,72,72,53,0.011950249900110066,1.01195024990011,827.3879905999638,None,828.5935178999789,None,829.5914710999932,None,833.5928410999477,None,833.5928410999477,None,f,0.6337270999792963,833.5928410999477,None,834.246315599943,None,,,,,,,VPN02,2022_Mar_01_2208,rdk-discrimination,2021.2.3,60.03269378841237,
none,left,,,,,0,73,73,47,0.012335349980276078,1.012335349980276,835.7370616999688,None,836.0912387999706,None,837.0914769999799,None,841.5924253999838,None,841.5924253999838,None,j,0.39868769998429343,841.5924253999838,None,842.023266299977,None,,,,,,,VPN02,2022_Mar_01_2208,rdk-discrimination,2021.2.3,60.03269378841237,
left,left,,,,,0,74,74,14,0.012070649943780154,1.0120706499437802,843.5058339999523,None,844.710453799984,None,845.7078936999897,None,850.708902399987,None,850.708902399987,None,f,0.8151599999982864,850.708902399987,None,851.5599469999433,None,,,,,,,VPN02,2022_Mar_01_2208,rdk-discrimination,2021.2.3,60.03269378841237,
right,right,,,,,0,75,75,16,0.012798550014849752,1.0127985500148498,853.0560795999481,None,853.8608571999939,None,854.8579709999613,None,859.3593455999508,None,859.3593455999508,None,j,0.36161590000847355,859.3593455999508,None,859.7450252999552,None,,,,,,,VPN02,2022_Mar_01_2208,rdk-discrimination,2021.2.3,60.03269378841237,
right,left,,,,,0,76,76,38,0.012599950016010553,1.0125999500160106,861.2376999999979,None,862.0447913999669,None,863.0413769999868,None,867.0431088999612,None,867.0431088999612,None,j,0.46164309995947406,867.0431088999612,None,867.5402553999447,None,,,,,,,VPN02,2022_Mar_01_2208,rdk-discrimination,2021.2.3,60.03269378841237,
left,left,,,,,0,77,77,5,0.012242249969858676,1.0122422499698587,869.02006109996,None,869.1244343999424,None,870.1245438999613,None,874.6257181999972,None,874.6257181999972,None,f,0.37592510000104085,874.6257181999972,None,875.0354258999578,None,,,,,,,VPN02,2022_Mar_01_2208,rdk-discrimination,2021.2.3,60.03269378841237,
none,right,,,,,0,78,78,61,0.011825649999082088,1.011825649999082,876.5210033999756,None,877.324471299944,None,878.3246429999708,None,881.7275201999582,None,881.7275201999582,None,j,0.4439513999968767,881.7275201999582,None,882.1957073999802,None,,,,,,,VPN02,2022_Mar_01_2208,rdk-discrimination,2021.2.3,60.03269378841237,
none,right,,,,,0,79,79,70,0.012187950022052974,1.012187950022053,883.6875386999454,None,884.0408919999609,None,885.0411301999702,None,889.0486719999462,None,889.0486719999462,None,f,0.4478773000300862,889.0486719999462,None,889.5359106999822,None,,,,,,,VPN02,2022_Mar_01_2208,rdk-discrimination,2021.2.3,60.03269378841237,
left,left,,,,,1,0,80,4,0.01146984996739775,1.0114698499673977,891.0209773999522,None,892.2311049999553,None,893.2249364999589,None,896.6252782999654,None,896.6252782999654,None,f,0.40718189999461174,896.6252782999654,None,897.0766656999476,None,,,,,,,VPN02,2022_Mar_01_2208,rdk-discrimination,2021.2.3,60.03269378841237,
left,right,,,,,1,1,81,32,0.012729749956633896,1.012729749956634,898.5738660999923,None,899.7777166999876,None,900.7743173999479,None,905.2804697999964,None,905.2804697999964,None,f,0.27619780000532046,905.2804697999964,None,905.5895714999642,None,,,,,,,VPN02,2022_Mar_01_2208,rdk-discrimination,2021.2.3,60.03269378841237,
none,right,,,,,1,2,82,78,0.012743850005790591,1.0127438500057906,907.0696104999515,None,908.2754170999979,None,909.2743198999669,None,914.2754183999496,None,914.2754183999496,None,j,0.5136181000270881,914.2754183999496,None,914.8259703999502,None,,,,,,,VPN02,2022_Mar_01_2208,rdk-discrimination,2021.2.3,60.03269378841237,
none,left,,,,,1,3,83,48,0.011778949934523553,1.0117789499345236,916.3230617999798,None,917.1272432999685,None,918.1240865999716,None,922.1251738999854,None,922.1251738999854,None,f,0.6084513999521732,922.1251738999854,None,922.7626301999553,None,,,,,,,VPN02,2022_Mar_01_2208,rdk-discrimination,2021.2.3,60.03269378841237,
right,right,,,,,1,4,84,29,0.012199449993204325,1.0121994499932043,924.2537840000005,None,925.4582713999553,None,926.4573407999706,None,931.4582339999615,None,931.4582339999615,None,j,0.31464359996607527,931.4582339999615,None,931.7944493999821,None,,,,,,,VPN02,2022_Mar_01_2208,rdk-discrimination,2021.2.3,60.03269378841237,
none,left,,,,,1,5,85,50,0.0122967500356026,1.0122967500356026,933.2871544999653,None,934.0908746999921,None,935.0906737999758,None,939.5918610999943,None,939.5918610999943,None,f,0.49853410001378506,939.5918610999943,None,940.1130337999784,None,,,,,,,VPN02,2022_Mar_01_2208,rdk-discrimination,2021.2.3,60.03269378841237,
right,right,,,,,1,6,86,16,0.011152749939356,1.011152749939356,941.6052634999505,None,942.4090982999769,None,943.40730599995,None,947.4103270999622,None,947.4103270999622,None,j,0.4231531999539584,947.4103270999622,None,947.8603747999878,None,,,,,,,VPN02,2022_Mar_01_2208,rdk-discrimination,2021.2.3,60.03269378841237,
none,left,,,,,1,7,87,51,0.012373749923426658,1.0123737499234267,949.3538895999664,None,950.5571954999468,None,951.5574393999996,None,954.958261199994,None,954.958261199994,None,f,0.46431690000463277,954.958261199994,None,955.4446338999551,None,,,,,,,VPN02,2022_Mar_01_2208,rdk-discrimination,2021.2.3,60.03269378841237,
none,left,,,,,1,8,88,57,0.011599749966990203,1.0115997499669902,956.9389107999741,None,958.1403279999504,None,959.1404191999463,None,962.5413691999856,None,962.5413691999856,None,j,0.66624839999713,962.5413691999856,None,963.2372810999514,None,,,,,,,VPN02,2022_Mar_01_2208,rdk-discrimination,2021.2.3,60.03269378841237,
left,left,,,,,1,9,89,10,0.012696749996393919,1.012696749996394,964.7191057999735,None,964.8235193999717,None,965.8237196999835,None,969.8248166999547,None,969.8248166999547,None,f,0.48588319995906204,969.8248166999547,None,970.3399950999883,None,,,,,,,VPN02,2022_Mar_01_2208,rdk-discrimination,2021.2.3,60.03269378841237,
right,left,,,,,1,10,90,39,0.011597549892030656,1.0115975498920307,971.8205357999541,None,971.9236222999752,None,972.9236865999992,None,977.4253434999846,None,977.4253434999846,None,j,0.3711435000295751,977.4253434999846,None,977.8364100999897,None,,,,,,,VPN02,2022_Mar_01_2208,rdk-discrimination,2021.2.3,60.03269378841237,
none,left,,,,,1,11,91,42,0.010362649976741523,1.0103626499767415,979.3217155999737,None,980.1234485999448,None,981.1252645999775,None,985.1413782999734,None,985.1413782999734,None,f,0.511478399974294,985.1413782999734,None,985.6933616999886,None,,,,,,,VPN02,2022_Mar_01_2208,rdk-discrimination,2021.2.3,60.03269378841237,
none,left,,,,,1,12,92,54,0.012339049950242043,1.012339049950242,987.1858607999748,None,987.2902319999994,None,988.2900808999548,None,992.29144859995,None,992.29144859995,None,j,0.39873989997431636,992.29144859995,None,992.7215077999863,None,,,,,,,VPN02,2022_Mar_01_2208,rdk-discrimination,2021.2.3,60.03269378841237,
left,left,,,,,1,13,93,9,0.011604950006585568,1.0116049500065856,994.203830399958,None,994.306523999956,None,995.3067623999668,None,998.7078241999843,None,998.7078241999843,None,f,0.46833970001898706,998.7078241999843,None,999.2085529999458,None,,,,,,,VPN02,2022_Mar_01_2208,rdk-discrimination,2021.2.3,60.03269378841237,
none,right,,,,,1,14,94,74,0.01118984998902306,1.011189849989023,1000.7059846999473,None,1001.0568483999814,None,1002.0568134999485,None,1006.5578787999693,None,1006.5578787999693,None,j,0.6126688999938779,1006.5578787999693,None,1007.1941221999587,None,,,,,,,VPN02,2022_Mar_01_2208,rdk-discrimination,2021.2.3,60.03269378841237,
right,right,,,,,1,15,95,17,0.011608149914536625,1.0116081499145366,1008.6879690999631,None,1008.7897144999588,None,1009.7904220999917,None,1013.7910320999799,None,1013.7910320999799,None,f,0.745914300030563,1013.7910320999799,None,1014.5710351999733,None,,,,,,,VPN02,2022_Mar_01_2208,rdk-discrimination,2021.2.3,60.03269378841237,
none,right,,,,,1,16,96,71,0.009392249980010092,1.00939224998001,1016.0544838999631,None,1017.2584511999739,None,1018.256704499945,None,1022.7583544999943,None,1022.7583544999943,None,j,0.4446714999503456,1022.7583544999943,None,1023.2405721999821,None,,,,,,,VPN02,2022_Mar_01_2208,rdk-discrimination,2021.2.3,60.03269378841237,
right,right,,,,,1,17,97,31,0.011812350014224648,1.0118123500142246,1024.720092899981,None,1025.5295920999488,None,1026.5231071999879,None,1031.0241013999912,None,1031.0241013999912,None,j,0.874007900012657,1031.0241013999912,None,1031.9269913999597,None,,,,,,,VPN02,2022_Mar_01_2208,rdk-discrimination,2021.2.3,60.03269378841237,
right,right,,,,,1,18,98,24,0.012294649903196841,1.0122946499031968,1033.4186401999905,None,1033.7765917999786,None,1034.7734466999536,None,1039.775212199951,None,1039.775212199951,None,f,0.5849750000052154,1039.775212199951,None,1040.380991299986,None,,,,,,,VPN02,2022_Mar_01_2208,rdk-discrimination,2021.2.3,60.03269378841237,
none,left,,,,,1,19,99,47,0.012179150013253093,1.012179150013253,1041.86903849995,None,1042.2250377999735,None,1043.2230254999595,None,1047.724044099974,None,1047.724044099974,None,j,0.7281223000027239,1047.724044099974,None,1048.477941799967,None,,,,,,,VPN02,2022_Mar_01_2208,rdk-discrimination,2021.2.3,60.03269378841237,
none,right,,,,,1,20,100,72,0.012179250014014542,1.0121792500140145,1049.9700273999479,None,1050.7767074999865,None,1051.7728060999652,None,1055.7753450999735,None,1055.7753450999735,None,f,0.7098590000532568,1055.7753450999735,None,1056.511621899961,None,,,,,,,VPN02,2022_Mar_01_2208,rdk-discrimination,2021.2.3,60.03269378841237,
none,left,,,,,1,21,101,43,0.012669550022110343,1.0126695500221103,1058.004739899945,None,1058.8063920999994,None,1059.8063412999618,None,1064.3075259999605,None,1064.3075259999605,None,j,0.963920500013046,1064.3075259999605,None,1065.301302799955,None,,,,,,,VPN02,2022_Mar_01_2208,rdk-discrimination,2021.2.3,60.03269378841237,
left,right,,,,,1,22,102,34,0.013056649942882359,1.0130566499428824,1066.7857318999595,None,1067.142747099977,None,1068.139191299968,None,1073.1406520999735,None,1073.1406520999735,None,f,0.44200640002964064,1073.1406520999735,None,1073.61144399998,None,,,,,,,VPN02,2022_Mar_01_2208,rdk-discrimination,2021.2.3,60.03269378841237,
none,left,,,,,1,23,103,41,0.012563150026835501,1.0125631500268355,1075.1022636999842,None,1075.4581957999617,None,1076.4562199999928,None,1079.8574005999835,None,1079.8574005999835,None,j,0.4892741999938153,1079.8574005999835,None,1080.3792038999964,None,,,,,,,VPN02,2022_Mar_01_2208,rdk-discrimination,2021.2.3,60.03269378841237,
right,right,,,,,1,24,104,26,0.012264149961993098,1.012264149961993,1081.8696722999448,None,1082.6749517999706,None,1083.6736774999881,None,1087.0737804999808,None,1087.0737804999808,None,j,0.36915980000048876,1087.0737804999808,None,1087.4737517999602,None,,,,,,,VPN02,2022_Mar_01_2208,rdk-discrimination,2021.2.3,60.03269378841237,
none,right,,,,,1,25,105,64,0.011738549976143986,1.011738549976144,1088.9707147999434,None,1089.7749383999617,None,1090.772782599961,None,1094.17377449997,None,1094.17377449997,None,j,0.628445600043051,1094.17377449997,None,1094.827646199963,None,,,,,,,VPN02,2022_Mar_01_2208,rdk-discrimination,2021.2.3,60.03269378841237,
right,right,,,,,1,26,106,30,0.011781949957367033,1.011781949957367,1096.3194077999797,None,1096.674564099987,None,1097.6726190999616,None,1102.6736522999709,None,1102.6736522999709,None,f,0.3532268000417389,1102.6736522999709,None,1103.0697342999629,None,,,,,,,VPN02,2022_Mar_01_2208,rdk-discrimination,2021.2.3,60.03269378841237,
none,left,,,,,1,27,107,49,0.011823150038253516,1.0118231500382535,1104.5534092999878,None,1104.6561485999846,None,1105.6558349999832,None,1110.1569683999987,None,1110.1569683999987,None,j,0.5284709999687038,1110.1569683999987,None,1110.7057911999873,None,,,,,,,VPN02,2022_Mar_01_2208,rdk-discrimination,2021.2.3,60.03269378841237,
none,right,,,,,1,28,108,62,0.012160649988800287,1.0121606499888003,1112.1868391999742,None,1112.989187899977,None,1113.9891019999632,None,1118.4902591999853,None,1118.4902591999853,None,j,1.0094236999866553,1118.4902591999853,None,1119.5436421999475,None,,,,,,,VPN02,2022_Mar_01_2208,rdk-discrimination,2021.2.3,60.03269378841237,
none,right,,,,,1,29,109,77,0.012605149997398257,1.0126051499973983,1121.03491269995,None,1122.24177839997,None,1123.2389526999905,None,1128.2400212999783,None,1128.2400212999783,None,f,0.611603900033515,1128.2400212999783,None,1128.8897149999975,None,,,,,,,VPN02,2022_Mar_01_2208,rdk-discrimination,2021.2.3,60.03269378841237,
right,right,,,,,1,30,110,28,0.012198450043797493,1.0121984500437975,1130.370285699959,None,1131.5782781999442,None,1132.572676599957,None,1136.5756451999769,None,1136.5756451999769,None,j,0.550582800002303,1136.5756451999769,None,1137.1713359999703,None,,,,,,,VPN02,2022_Mar_01_2208,rdk-discrimination,2021.2.3,60.03269378841237,
left,left,,,,,1,31,111,7,0.0066218500141985714,1.0066218500141986,1138.659173299966,None,1139.4757727999822,None,1140.4722678999533,None,1143.8732418,None,1143.8732418,None,f,1.364108599955216,1143.8732418,None,1145.2588012999622,None,,,,,,,VPN02,2022_Mar_01_2208,rdk-discrimination,2021.2.3,60.03269378841237,
right,left,,,,,1,32,112,38,0.012440849968697876,1.0124408499686979,1146.7520492999465,None,1147.9577935999841,None,1148.9562286999426,None,1152.356939499965,None,1152.356939499965,None,j,0.33189789997413754,1152.356939499965,None,1152.7210115999915,None,,,,,,,VPN02,2022_Mar_01_2208,rdk-discrimination,2021.2.3,60.03269378841237,
right,right,,,,,1,33,113,19,0.01235874998383224,1.0123587499838322,1154.203240999952,None,1155.0087078999495,None,1156.0055853999802,None,1160.5068048999528,None,1160.5068048999528,None,f,0.5044625999871641,1160.5068048999528,None,1161.0424791999976,None,,,,,,,VPN02,2022_Mar_01_2208,rdk-discrimination,2021.2.3,60.03269378841237,
none,right,,,,,1,34,114,68,0.012452750001102686,1.0124527500011027,1162.536810599966,None,1163.3408324999618,None,1164.3386881999904,None,1167.7401431999751,None,1167.7401431999751,None,j,0.4118558000191115,1167.7401431999751,None,1168.1914831999457,None,,,,,,,VPN02,2022_Mar_01_2208,rdk-discrimination,2021.2.3,60.03269378841237,
none,right,,,,,1,35,115,65,0.011476550018414855,1.0114765500184149,1169.6859287999687,None,1169.7885291999555,None,1170.7886065999628,None,1174.7896993999602,None,1174.7896993999602,None,f,0.5085455000516959,1174.7896993999602,None,1175.3352409999934,None,,,,,,,VPN02,2022_Mar_01_2208,rdk-discrimination,2021.2.3,60.03269378841237,
none,left,,,,,1,36,116,45,0.013005949964281172,1.0130059499642812,1176.8176285999944,None,1177.6254781999742,None,1178.6223722999566,None,1183.6235450999811,None,1183.6235450999811,None,j,0.41415690002031624,1183.6235450999811,None,1184.0585885999608,None,,,,,,,VPN02,2022_Mar_01_2208,rdk-discrimination,2021.2.3,60.03269378841237,
left,left,,,,,1,37,117,3,0.013021849968936294,1.0130218499689363,1185.55062309996,None,1185.6590477999998,None,1186.6553590999683,None,1190.656499499979,None,1190.656499499979,None,f,1.2777039000065997,1190.656499499979,None,1191.9776232999866,None,,,,,,,VPN02,2022_Mar_01_2208,rdk-discrimination,2021.2.3,60.03269378841237,
none,right,,,,,1,38,118,76,0.011622250021900982,1.011622250021901,1193.471468099975,None,1194.6738347999635,None,1195.6717334999703,None,1200.1730975999963,None,1200.1730975999963,None,j,0.3982436999795027,1200.1730975999963,None,1200.5882450999925,None,,,,,,,VPN02,2022_Mar_01_2208,rdk-discrimination,2021.2.3,60.03269378841237,
right,right,,,,,1,39,119,21,0.01177054998697713,1.0117705499869771,1202.0684092999436,None,1202.4242479999666,None,1203.4224046999589,None,1207.9255911999498,None,1207.9255911999498,None,j,0.6600049000116996,1207.9255911999498,None,1208.6159329999937,None,,,,,,,VPN02,2022_Mar_01_2208,rdk-discrimination,2021.2.3,60.03269378841237,
none,left,,,,,1,40,120,58,0.011750150006264448,1.0117501500062644,1210.1012294999673,None,1210.9049769999692,None,1211.9050376999658,None,1215.9060388999642,None,1215.9060388999642,None,f,0.4842359999893233,1215.9060388999642,None,1216.4091229999904,None,,,,,,,VPN02,2022_Mar_01_2208,rdk-discrimination,2021.2.3,60.03269378841237,
none,left,,,,,1,41,121,40,0.012085449998266995,1.012085449998267,1217.9024957999936,None,1219.105068099976,None,1220.1046844999655,None,1223.5065100999782,None,1223.5065100999782,None,j,1.0437758999760263,1223.5065100999782,None,1224.58544299996,None,,,,,,,VPN02,2022_Mar_01_2208,rdk-discrimination,2021.2.3,60.03269378841237,
right,right,,,,,1,42,122,20,0.011987850011792034,1.011987850011792,1226.068831099954,None,1226.1714576999657,None,1227.1715597999864,None,1231.672946799954,None,1231.672946799954,None,j,0.39055290003307164,1231.672946799954,None,1232.1042541999486,None,,,,,,,VPN02,2022_Mar_01_2208,rdk-discrimination,2021.2.3,60.03269378841237,
left,left,,,,,1,43,123,2,0.011653749970719218,1.0116537499707192,1233.5856633999501,None,1234.3938284999458,None,1235.3885494999704,None,1238.7919754999457,None,1238.7919754999457,None,f,0.567953200021293,1238.7919754999457,None,1239.390053799958,None,,,,,,,VPN02,2022_Mar_01_2208,rdk-discrimination,2021.2.3,60.03269378841237,
left,right,,,,,1,44,124,35,0.012633450038265437,1.0126334500382654,1240.8848489999655,None,1240.9885073999758,None,1241.9879432999878,None,1245.990035899973,None,1245.990035899973,None,j,0.5186555000254884,1245.990035899973,None,1246.5402373999823,None,,,,,,,VPN02,2022_Mar_01_2208,rdk-discrimination,2021.2.3,60.03269378841237,
left,left,,,,,1,45,125,14,0.01173204998485744,1.0117320499848574,1248.0341859999462,None,1248.3900858999696,None,1249.3882943999488,None,1254.392827499949,None,1254.392827499949,None,j,0.646554900042247,1254.392827499949,None,1255.069856899965,None,,,,,,,VPN02,2022_Mar_01_2208,rdk-discrimination,2021.2.3,60.03269378841237,
none,right,,,,,1,46,126,70,0.012396549980621785,1.0123965499806218,1256.553751999978,None,1257.3553595999838,None,1258.3546170999762,None,1262.8556891999906,None,1262.8556891999906,None,f,0.5090762000181712,1262.8556891999906,None,1263.392117899959,None,,,,,,,VPN02,2022_Mar_01_2208,rdk-discrimination,2021.2.3,60.03269378841237,
right,left,,,,,1,47,127,36,0.011921650031581521,1.0119216500315815,1264.8857176999445,None,1266.0903907999746,None,1267.0878760999767,None,1272.0890224999748,None,1272.0890224999748,None,j,0.36065000004600734,1272.0890224999748,None,1272.4752222999814,None,,,,,,,VPN02,2022_Mar_01_2208,rdk-discrimination,2021.2.3,60.03269378841237,
none,left,,,,,1,48,128,59,0.011938849987927824,1.0119388499879278,1273.9671596999979,None,1275.1713438999723,None,1276.1719504999928,None,1279.572141099954,None,1279.572141099954,None,f,0.3791535999625921,1279.572141099954,None,1279.9870667999494,None,,,,,,,VPN02,2022_Mar_01_2208,rdk-discrimination,2021.2.3,60.03269378841237,
left,left,,,,,1,49,129,1,0.011793549987487495,1.0117935499874875,1281.4679800999584,None,1282.6738236999954,None,1283.6711722999462,None,1287.6725589999696,None,1287.6725589999696,None,j,0.6689886000240222,1287.6725589999696,None,1288.384080399992,None,,,,,,,VPN02,2022_Mar_01_2208,rdk-discrimination,2021.2.3,60.03269378841237,
left,left,,,,,1,50,130,15,0.01162684999871999,1.01162684999872,1289.8680140999495,None,1290.674082499987,None,1291.6712040999555,None,1296.6725589999696,None,1296.6725589999696,None,f,0.39413000002969056,1296.6725589999696,None,1297.1089049999719,None,,,,,,,VPN02,2022_Mar_01_2208,rdk-discrimination,2021.2.3,60.03269378841237,
left,left,,,,,1,51,131,6,0.012779249984305352,1.0127792499843054,1298.6016447999864,None,1298.9579446999705,None,1299.954629499989,None,1303.9553397999844,None,1303.9553397999844,None,f,0.5168837999808602,1303.9553397999844,None,1304.4921071999706,None,,,,,,,VPN02,2022_Mar_01_2208,rdk-discrimination,2021.2.3,60.03269378841237,
left,left,,,,,1,52,132,0,0.012815949914511293,1.0128159499145113,1305.9855994999525,None,1306.3410236999625,None,1307.3380340999574,None,1311.838885699981,None,1311.838885699981,None,j,0.48101680004037917,1311.838885699981,None,1312.3572666999535,None,,,,,,,VPN02,2022_Mar_01_2208,rdk-discrimination,2021.2.3,60.03269378841237,
none,right,,,,,1,53,133,67,0.012052649981342256,1.0120526499813423,1313.850915399962,None,1313.9540723999962,None,1314.9543777999934,None,1319.4551951999892,None,1319.4551951999892,None,f,0.46863289998145774,1319.4551951999892,None,1319.9410500999657,None,,,,,,,VPN02,2022_Mar_01_2208,rdk-discrimination,2021.2.3,60.03269378841237,
right,right,,,,,1,54,134,23,0.011409849976189435,1.0114098499761894,1321.4346026999992,None,1322.6419001999893,None,1323.6377038999926,None,1328.1388548999676,None,1328.1388548999676,None,j,0.3785009999992326,1328.1388548999676,None,1328.5566626999644,None,,,,,,,VPN02,2022_Mar_01_2208,rdk-discrimination,2021.2.3,60.03269378841237,
none,left,,,,,1,55,135,56,0.012065750022884458,1.0120657500228845,1330.0504961999832,None,1331.2539799999795,None,1332.2541602999554,None,1337.2558188999537,None,1337.2558188999537,None,f,0.5641926000243984,1337.2558188999537,None,1337.8423843999626,None,,,,,,,VPN02,2022_Mar_01_2208,rdk-discrimination,2021.2.3,60.03269378841237,
left,left,,,,,1,56,136,11,0.012399650004226714,1.0123996500042267,1339.3336493999814,None,1339.437595699972,None,1340.4372301999829,None,1344.9382721999427,None,1344.9382721999427,None,j,0.6475723999901675,1344.9382721999427,None,1345.6177105999668,None,,,,,,,VPN02,2022_Mar_01_2208,rdk-discrimination,2021.2.3,60.03269378841237,
none,left,,,,,1,57,137,52,0.012373250036034733,1.0123732500360347,1347.1002494999557,None,1347.2038736999966,None,1348.2040134999552,None,1353.2057563999551,None,1353.2057563999551,None,j,0.753217899997253,1353.2057563999551,None,1353.9895965999458,None,,,,,,,VPN02,2022_Mar_01_2208,rdk-discrimination,2021.2.3,60.03269378841237,
none,right,,,,,1,58,138,75,0.012137150042690337,1.0121371500426903,1355.486090899969,None,1355.587241799978,None,1356.587294499972,None,1361.588340999966,None,1361.588340999966,None,f,0.40374359994893894,1361.588340999966,None,1362.022019899974,None,,,,,,,VPN02,2022_Mar_01_2208,rdk-discrimination,2021.2.3,60.03269378841237,
none,right,,,,,1,59,139,79,0.01190844998927787,1.0119084499892779,1363.5184348999755,None,1364.3217023999896,None,1365.3206346999505,None,1369.8238282999955,None,1369.8238282999955,None,j,0.4546101000159979,1369.8238282999955,None,1370.3266094999854,None,,,,,,,VPN02,2022_Mar_01_2208,rdk-discrimination,2021.2.3,60.03269378841237,
left,right,,,,,1,60,140,33,0.012276049994397908,1.012276049994398,1371.8168603999657,None,1371.9209144999622,None,1372.9204297999968,None,1377.4213735999656,None,1377.4213735999656,None,f,0.4314130999846384,1377.4213735999656,None,1377.8857468999922,None,,,,,,,VPN02,2022_Mar_01_2208,rdk-discrimination,2021.2.3,60.03269378841237,
none,left,,,,,1,61,141,46,0.01241054997080937,1.0124105499708094,1379.3675730999676,None,1380.1704303999431,None,1381.170656799979,None,1384.5735889999778,None,1384.5735889999778,None,j,0.5598532000440173,1384.5735889999778,None,1385.1583975999965,None,,,,,,,VPN02,2022_Mar_01_2208,rdk-discrimination,2021.2.3,60.03269378841237,
none,right,,,,,1,62,142,61,0.011845349974464625,1.0118453499744646,1386.650285599986,None,1387.8540257999557,None,1388.8536361999577,None,1392.8545759999542,None,1392.8545759999542,None,f,0.954917499970179,1392.8545759999542,None,1393.8394147999934,None,,,,,,,VPN02,2022_Mar_01_2208,rdk-discrimination,2021.2.3,60.03269378841237,
right,right,,,,,1,63,143,27,0.011951749969739467,1.0119517499697395,1395.33345549996,None,1396.1383617999963,None,1397.1368196999538,None,1400.5381613999489,None,1400.5381613999489,None,j,0.8116119999904186,1400.5381613999489,None,1401.3884569999645,None,,,,,,,VPN02,2022_Mar_01_2208,rdk-discrimination,2021.2.3,60.03269378841237,
none,left,,,,,1,64,144,55,0.011949550011195242,1.0119495500111952,1402.8842692999751,None,1404.0866213999689,None,1405.0869435999775,None,1409.087547699979,None,1409.087547699979,None,None,,1409.087547699979,None,1410.6752845999436,None,,,,,,,VPN02,2022_Mar_01_2208,rdk-discrimination,2021.2.3,60.03269378841237,
right,left,,,,,1,65,145,37,0.015302349987905473,1.0153023499879055,1412.0707859999966,None,1412.4250032999553,None,1413.4228774999501,None,1417.4346925999853,None,1417.4346925999853,None,f,0.4605333000072278,1417.4346925999853,None,1417.9298118999577,None,,,,,,,VPN02,2022_Mar_01_2208,rdk-discrimination,2021.2.3,60.03269378841237,
none,right,,,,,1,66,146,73,0.011875450029037893,1.011875450029038,1419.4134120999952,None,1419.5164698999724,None,1420.5166188000003,None,1424.5200479999767,None,1424.5200479999767,None,j,0.4632188000250608,1424.5200479999767,None,1425.0057488999446,None,,,,,,,VPN02,2022_Mar_01_2208,rdk-discrimination,2021.2.3,60.03269378841237,
none,right,,,,,1,67,147,63,0.012384150002617389,1.0123841500026174,1426.4960811999626,None,1427.2999994999846,None,1428.2998422999517,None,1433.3012349999626,None,1433.3012349999626,None,f,0.31582029996206984,1433.3012349999626,None,1433.643625399971,None,,,,,,,VPN02,2022_Mar_01_2208,rdk-discrimination,2021.2.3,60.03269378841237,
none,right,,,,,1,68,148,69,0.012680649990215898,1.012680649990216,1435.128224999993,None,1436.3348408999736,None,1437.3334247999592,None,1442.3383805999765,None,1442.3383805999765,None,j,0.27478289999999106,1442.3383805999765,None,1442.6486985999509,None,,,,,,,VPN02,2022_Mar_01_2208,rdk-discrimination,2021.2.3,60.03269378841237,
none,left,,,,,1,69,149,53,0.012736949953250587,1.0127369499532506,1444.1296618999913,None,1444.9331154999672,None,1445.9331416999921,None,1449.9363100999617,None,1449.9363100999617,None,j,0.8427669999655336,1449.9363100999617,None,1450.8128257999779,None,,,,,,,VPN02,2022_Mar_01_2208,rdk-discrimination,2021.2.3,60.03269378841237,
left,left,,,,,1,70,150,13,0.012533249973785132,1.0125332499737851,1452.2959217999596,None,1452.402929199976,None,1453.3998451999505,None,1457.9038870999939,None,1457.9038870999939,None,f,1.1346999000525102,1457.9038870999939,None,1459.0769765999867,None,,,,,,,VPN02,2022_Mar_01_2208,rdk-discrimination,2021.2.3,60.03269378841237,
none,right,,,,,1,71,151,66,0.012674850004259497,1.0126748500042595,1460.5630409999867,None,1461.7662618999602,None,1462.7664938999806,None,1467.2704049999593,None,1467.2704049999593,None,j,0.3455168000073172,1467.2704049999593,None,1467.6378119,None,,,,,,,VPN02,2022_Mar_01_2208,rdk-discrimination,2021.2.3,60.03269378841237,
right,right,,,,,1,72,152,25,0.012788149935659021,1.012788149935659,1469.1284987999825,None,1469.2349922999856,None,1470.2326646999572,None,1474.7340662999777,None,1474.7340662999777,None,j,1.3469505000393838,1474.7340662999777,None,1476.1039263999555,None,,,,,,,VPN02,2022_Mar_01_2208,rdk-discrimination,2021.2.3,60.03269378841237,
none,left,,,,,1,73,153,44,0.013611949980258942,1.013611949980259,1477.5957855999586,None,1477.9698282999452,None,1480.648187499959,None,1485.6513124999474,None,1485.6513124999474,None,f,0.3241283999523148,1485.6513124999474,None,1485.9878050999832,None,,,,,,,VPN02,2022_Mar_01_2208,rdk-discrimination,2021.2.3,60.03269378841237,
right,right,,,,,1,74,154,18,0.014010249986313283,1.0140102499863133,1487.4793224999448,None,1487.5834473999566,None,1488.5828982999665,None,1493.5846020999597,None,1493.5846020999597,None,j,1.0737885999842547,1493.5846020999597,None,1494.6834329999983,None,,,,,,,VPN02,2022_Mar_01_2208,rdk-discrimination,2021.2.3,60.03269378841237,
left,left,,,,,1,75,155,8,0.012575649947393686,1.0125756499473937,1496.1645973999985,None,1497.3664735999773,None,1498.3664307,None,1503.3676677999902,None,1503.3676677999902,None,f,0.4116428000270389,1503.3676677999902,None,1503.8014015999506,None,,,,,,,VPN02,2022_Mar_01_2208,rdk-discrimination,2021.2.3,60.03269378841237,
right,right,,,,,1,76,156,22,0.012773249996826053,1.012773249996826,1505.29556889995,None,1505.3999412999838,None,1506.416751199984,None,1511.419430299953,None,1511.419430299953,None,j,0.39381219999631867,1511.419430299953,None,1511.8363476999803,None,,,,,,,VPN02,2022_Mar_01_2208,rdk-discrimination,2021.2.3,60.03269378841237,
left,left,,,,,1,77,157,12,0.012977549980860204,1.0129775499808602,1513.33097239997,None,1513.4344507999485,None,1514.4343085999717,None,1518.9360751999775,None,1518.9360751999775,None,j,0.5113311000168324,1518.9360751999775,None,1519.4767101999605,None,,,,,,,VPN02,2022_Mar_01_2208,rdk-discrimination,2021.2.3,60.03269378841237,
none,right,,,,,1,78,158,60,0.012419149919878691,1.0124191499198787,1520.964102799946,None,1521.7676688999636,None,1522.767073099967,None,1526.7692683999776,None,1526.7692683999776,None,f,0.37970380001934245,1526.7692683999776,None,1527.1708688999643,None,,,,,,,VPN02,2022_Mar_01_2208,rdk-discrimination,2021.2.3,60.03269378841237,
left,left,,,,,1,79,159,5,0.012787749990820885,1.0127877499908209,1528.6639885999612,None,1529.869291699957,None,1530.8675689999945,None,1534.2717477999977,None,1534.2717477999977,None,f,0.6939192999852821,1534.2717477999977,None,1534.993988799979,None,,,,,,,VPN02,2022_Mar_01_2208,rdk-discrimination,2021.2.3,60.03269378841237,
