cue,direction,practice_block_loop.thisRepN,practice_block_loop.thisTrialN,practice_block_loop.thisN,practice_block_loop.thisIndex,main_blocks_loop.thisRepN,main_blocks_loop.thisTrialN,main_blocks_loop.thisN,main_blocks_loop.thisIndex,static_isi.started,static_isi.stopped,fixation_pre.started,fixation_pre.stopped,image.started,image.stopped,fixation_post.started,fixation_post.stopped,dots_background.started,dots_background.stopped,dots_stimulus.started,dots_stimulus.stopped,dots_keyboard_response.keys,dots_keyboard_response.rt,dots_keyboard_response.started,dots_keyboard_response.stopped,feedback_text.started,feedback_text.stopped,instruction_main_text.started,instruction_main_text.stopped,instruction_main_keyboard_response.keys,instruction_main_keyboard_response.rt,instruction_main_keyboard_response.started,instruction_main_keyboard_response.stopped,Pseudonym,date,expName,psychopyVersion,frameRate,
none,left,0,0,0,4,,,,,0.0040327011000727,1.0040327011000727,42.5831651499999,None,42.718603712000004,None,43.70090897099999,None,47.70943389899992,None,47.70943389899992,None,j,0.8851791140000387,47.70943389899992,None,48.63673190499992,None,,,,,,,NS,2022_Mar_07_1331,rdk-discrimination,2021.2.3,59.93825975636707,
left,left,0,1,1,0,,,,,0.01525294110001596,1.015252941100016,50.121994625999946,None,50.93773754799997,None,51.938949487999935,None,55.94398979499999,None,55.94398979499999,None,f,0.7785413270000845,55.94398979499999,None,56.75796826499993,None,,,,,,,NS,2022_Mar_07_1331,rdk-discrimination,2021.2.3,59.93825975636707,
none,right,0,2,2,5,,,,,0.015421820099959405,1.0154218200999594,58.26046283799997,None,58.628460780999944,None,59.626153338999984,None,64.63386645199989,None,64.63386645199989,None,j,0.6727146859999493,64.63386645199989,None,65.34450961099992,None,,,,,,,NS,2022_Mar_07_1331,rdk-discrimination,2021.2.3,59.93825975636707,
left,right,0,3,3,2,,,,,0.014866159099824472,1.0148661590998245,66.83256365499994,None,68.11368642299999,None,69.06422944499991,None,72.47299948399996,None,72.47299948399996,None,j,0.8814155699999446,72.47299948399996,None,73.39917337499992,None,,,,,,,NS,2022_Mar_07_1331,rdk-discrimination,2021.2.3,59.93825975636707,
right,left,0,4,4,3,,,,,0.014914441100017939,1.014914441100018,74.89901629999997,None,75.25410645,None,76.24984495499996,None,81.25618137699996,None,81.25618137699996,None,j,1.3382762950000142,81.25618137699996,None,82.63657863799995,None,,,,,,,NS,2022_Mar_07_1331,rdk-discrimination,2021.2.3,59.93825975636707,
right,right,0,5,5,1,,,,,0.015682895099985217,1.0156828950999852,84.12237387099992,None,84.93892129799997,None,85.93726143999993,None,89.94002565599999,None,89.94002565599999,None,j,1.0625663710000026,89.94002565599999,None,91.04048661699994,None,,,,,,,NS,2022_Mar_07_1331,rdk-discrimination,2021.2.3,59.93825975636707,
,,,,,,,,,,,,,,,,,,,,,,,,,,,,91.54026313999998,None,space,2.374246317000029,91.54026313999998,None,NS,2022_Mar_07_1331,rdk-discrimination,2021.2.3,59.93825975636707,
right,right,,,,,0,0,0,23,0.006944896100208098,1.006944896100208,94.94139335499995,None,96.14333911899996,None,97.1425570539999,None,100.54635810599996,None,100.54635810599996,None,j,0.8242111529999647,100.54635810599996,None,101.39621112199995,None,,,,,,,NS,2022_Mar_07_1331,rdk-discrimination,2021.2.3,59.93825975636707,
none,left,,,,,0,1,1,52,0.014980710100076067,1.014980710100076,102.89525615699995,None,103.69788515799996,None,104.69648421699992,None,109.70016498299992,None,109.70016498299992,None,f,0.9583747470001072,109.70016498299992,None,110.6999104969999,None,,,,,,,NS,2022_Mar_07_1331,rdk-discrimination,2021.2.3,59.93825975636707,
right,right,,,,,0,2,2,29,0.015324687100019219,1.0153246871000192,112.18270079799993,None,113.38544330999991,None,114.38405315399996,None,118.38750075299993,None,118.38750075299993,None,j,0.8871335149999595,118.38750075299993,None,119.30590121799992,None,,,,,,,NS,2022_Mar_07_1331,rdk-discrimination,2021.2.3,59.93825975636707,
none,right,,,,,0,3,3,62,0.014924303099860481,1.0149243030998605,120.8035004809999,None,122.00554298199995,None,123.00519055099994,None,128.010197168,None,128.010197168,None,j,1.2323268799999596,128.010197168,None,129.2767961699999,None,,,,,,,NS,2022_Mar_07_1331,rdk-discrimination,2021.2.3,59.93825975636707,
none,right,,,,,0,4,4,64,0.015355969099800859,1.0153559690998009,130.7752896149999,None,130.87743547999992,None,131.8758005379999,None,136.879342823,None,136.879342823,None,j,1.3791126390000272,136.879342823,None,138.28035845499994,None,,,,,,,NS,2022_Mar_07_1331,rdk-discrimination,2021.2.3,59.93825975636707,
none,left,,,,,0,5,5,58,0.015356396099832637,1.0153563960998326,139.77959416600004,None,140.98221181199995,None,141.98020836199987,None,145.384392091,None,145.384392091,None,None,,145.384392091,None,146.89969905299984,None,,,,,,,NS,2022_Mar_07_1331,rdk-discrimination,2021.2.3,59.93825975636707,
left,left,,,,,0,6,6,15,0.015690258099994026,1.015690258099994,148.36701578600002,None,149.183590752,None,150.18440006499998,None,153.58759087199985,None,153.58759087199985,None,f,0.822891201000175,153.58759087199985,None,154.453368372,None,,,,,,,NS,2022_Mar_07_1331,rdk-discrimination,2021.2.3,59.93825975636707,
none,right,,,,,0,7,7,69,0.015597889100263274,1.0155978891002633,155.93688986799987,None,156.739377923,None,157.737924657,None,162.24456959099996,None,162.24456959099996,None,j,0.733929198999931,162.24456959099996,None,163.02381017999994,None,,,,,,,NS,2022_Mar_07_1331,rdk-discrimination,2021.2.3,59.93825975636707,
left,left,,,,,0,8,8,0,0.015125923099958527,1.0151259230999585,164.50833163100003,None,165.31192921700006,None,166.30947672299988,None,170.81290514699992,None,170.81290514699992,None,f,0.8055872850000014,170.81290514699992,None,171.64560040799995,None,,,,,,,NS,2022_Mar_07_1331,rdk-discrimination,2021.2.3,59.93825975636707,
left,left,,,,,0,9,9,9,0.015693394100026126,1.0156933941000261,173.12876229200003,None,173.93126520299995,None,174.9293548249999,None,178.332893679,None,178.332893679,None,f,1.1417450849999113,178.332893679,None,179.51823936699986,None,,,,,,,NS,2022_Mar_07_1331,rdk-discrimination,2021.2.3,59.93825975636707,
left,left,,,,,0,10,10,6,0.015323453100108964,1.015323453100109,181.01570739400006,None,182.21823312999993,None,183.21668693899994,None,187.22044787099992,None,187.22044787099992,None,f,0.9262072030001036,187.22044787099992,None,188.17267289699987,None,,,,,,,NS,2022_Mar_07_1331,rdk-discrimination,2021.2.3,59.93825975636707,
none,left,,,,,0,11,11,50,0.015352404099985506,1.0153524040999855,189.66940525799998,None,190.87172200099997,None,191.87105731199983,None,196.875131936,None,196.875131936,None,j,0.8713565680000102,196.875131936,None,197.79221627000004,None,,,,,,,NS,2022_Mar_07_1331,rdk-discrimination,2021.2.3,59.93825975636707,
none,right,,,,,0,12,12,74,0.015306456100006471,1.0153064561000065,199.29056032200003,None,200.09271898600002,None,201.09196658500002,None,204.4946783879999,None,204.4946783879999,None,j,0.9959443719999399,204.4946783879999,None,205.5271550619999,None,,,,,,,NS,2022_Mar_07_1331,rdk-discrimination,2021.2.3,59.93825975636707,
right,right,,,,,0,13,13,31,0.015661588100101653,1.0156615881001017,207.01198481699987,None,207.1129564869999,None,208.1120760959999,None,213.1160732059999,None,213.1160732059999,None,j,0.6785442739999326,213.1160732059999,None,213.81684010900005,None,,,,,,,NS,2022_Mar_07_1331,rdk-discrimination,2021.2.3,59.93825975636707,
left,right,,,,,0,14,14,33,0.015324624100003348,1.0153246241000033,215.315160731,None,215.66744850299995,None,216.66596482600005,None,221.17081971200002,None,221.17081971200002,None,j,1.0157437510001728,221.17081971200002,None,222.21860913199987,None,,,,,,,NS,2022_Mar_07_1331,rdk-discrimination,2021.2.3,59.93825975636707,
left,left,,,,,0,15,15,3,0.015319250099992132,1.0153192500999921,223.70278874899998,None,224.05449538300002,None,225.0531101989999,None,229.55707483999993,None,229.55707483999993,None,f,0.6295738900000742,229.55707483999993,None,230.22252910099985,None,,,,,,,NS,2022_Mar_07_1331,rdk-discrimination,2021.2.3,59.93825975636707,
none,left,,,,,0,16,16,56,0.015270914099801303,1.0152709140998013,231.70651057899988,None,232.508073179,None,233.50715571600006,None,238.51192610500004,None,238.51192610500004,None,j,0.7786809379999795,238.51192610500004,None,239.3267231839999,None,,,,,,,NS,2022_Mar_07_1331,rdk-discrimination,2021.2.3,59.93825975636707,
right,right,,,,,0,17,17,20,0.015352671100117732,1.0153526711001177,240.81032416699998,None,242.01321774899986,None,243.0116466579999,None,248.01620168099987,None,248.01620168099987,None,j,0.6022835199999008,248.01620168099987,None,248.665045416,None,,,,,,,NS,2022_Mar_07_1331,rdk-discrimination,2021.2.3,59.93825975636707,
left,left,,,,,0,18,18,4,0.015319929100087393,1.0153199291000874,250.14810216499984,None,250.25040588399986,None,251.249319398,None,254.65230458300005,None,254.65230458300005,None,f,1.2622835509998822,254.65230458300005,None,255.95231586199986,None,,,,,,,NS,2022_Mar_07_1331,rdk-discrimination,2021.2.3,59.93825975636707,
none,right,,,,,0,19,19,71,0.015351572099916666,1.0153515720999167,257.4516828509999,None,257.80337908900003,None,258.802471267,None,262.8063280759999,None,262.8063280759999,None,j,0.8442001959999743,262.8063280759999,None,263.67172565,None,,,,,,,NS,2022_Mar_07_1331,rdk-discrimination,2021.2.3,59.93825975636707,
left,left,,,,,0,20,20,12,0.015328856100040866,1.0153288561000409,265.15524487799996,None,265.50775964699994,None,266.5068150139999,None,271.010335715,None,271.010335715,None,j,0.8242381380000552,271.010335715,None,271.8756063719999,None,,,,,,,NS,2022_Mar_07_1331,rdk-discrimination,2021.2.3,59.93825975636707,
none,left,,,,,0,21,21,41,0.015122876100122085,1.015122876100122,273.359224163,None,274.16104560099996,None,275.16020141699994,None,279.6640321849999,None,279.6640321849999,None,j,0.8585876719998851,279.6640321849999,None,280.562910301,None,,,,,,,NS,2022_Mar_07_1331,rdk-discrimination,2021.2.3,59.93825975636707,
right,right,,,,,0,22,22,19,0.015326756099966587,1.0153267560999666,282.046625628,None,283.249003817,None,284.2478209249999,None,289.2521426469999,None,289.2521426469999,None,j,0.73435070000005,289.2521426469999,None,290.036419981,None,,,,,,,NS,2022_Mar_07_1331,rdk-discrimination,2021.2.3,59.93825975636707,
none,right,,,,,0,23,23,76,0.015323916100214774,1.0153239161002148,291.53429888699986,None,291.88583628000004,None,292.88527726899986,None,296.2886132289999,None,296.2886132289999,None,j,0.9779655820000244,296.2886132289999,None,297.30424881500005,None,,,,,,,NS,2022_Mar_07_1331,rdk-discrimination,2021.2.3,59.93825975636707,
none,left,,,,,0,24,24,54,0.015317013100002441,1.0153170131000024,298.78773949000004,None,299.14028567599996,None,300.138751244,None,303.54238787299994,None,303.54238787299994,None,j,1.2922858619999715,303.54238787299994,None,304.874925725,None,,,,,,,NS,2022_Mar_07_1331,rdk-discrimination,2021.2.3,59.93825975636707,
right,right,,,,,0,25,25,25,0.015347883099593673,1.0153478830995937,306.358046984,None,306.71039608299986,None,307.708797895,None,312.71321230399997,None,312.71321230399997,None,j,0.7773790440000994,312.71321230399997,None,313.52864487,None,,,,,,,NS,2022_Mar_07_1331,rdk-discrimination,2021.2.3,59.93825975636707,
none,left,,,,,0,26,26,42,0.015367163099881509,1.0153671630998815,315.01213493299986,None,316.21404340499987,None,317.213546501,None,321.21724826,None,321.21724826,None,f,1.1613657850000436,321.21724826,None,322.403147011,None,,,,,,,NS,2022_Mar_07_1331,rdk-discrimination,2021.2.3,59.93825975636707,
right,right,,,,,0,27,27,17,0.01533081510001466,1.0153308151000147,323.9002937639999,None,324.00205007099987,None,325.000558654,None,329.5047675889999,None,329.5047675889999,None,j,0.657835698000099,329.5047675889999,None,330.2039036289999,None,,,,,,,NS,2022_Mar_07_1331,rdk-discrimination,2021.2.3,59.93825975636707,
none,right,,,,,0,28,28,63,0.015314338099869929,1.01531433809987,331.686661202,None,332.8887374069999,None,333.887888183,None,337.29160892799985,None,337.29160892799985,None,j,1.0309189580000293,337.29160892799985,None,338.35806185900003,None,,,,,,,NS,2022_Mar_07_1331,rdk-discrimination,2021.2.3,59.93825975636707,
none,right,,,,,0,29,29,68,0.015328692099956243,1.0153286920999562,339.85742735899987,None,340.2088071679999,None,341.2084932439999,None,345.71219662299984,None,345.71219662299984,None,f,0.8664039489999595,345.71219662299984,None,346.610821504,None,,,,,,,NS,2022_Mar_07_1331,rdk-discrimination,2021.2.3,59.93825975636707,
right,right,,,,,0,30,30,27,0.015331462099993587,1.0153314620999936,348.0946128879999,None,348.44654487599985,None,349.445486791,None,354.44970447799994,None,354.44970447799994,None,j,0.8249379510000381,354.44970447799994,None,355.315225876,None,,,,,,,NS,2022_Mar_07_1331,rdk-discrimination,2021.2.3,59.93825975636707,
none,left,,,,,0,31,31,45,0.015348286099651887,1.0153482860996519,356.7987892509999,None,358.00069206399996,None,359.000092893,None,363.50401926100005,None,363.50401926100005,None,f,0.7226598449999528,363.50401926100005,None,364.269411892,None,,,,,,,NS,2022_Mar_07_1331,rdk-discrimination,2021.2.3,59.93825975636707,
left,left,,,,,0,32,32,2,0.015348584099911022,1.015348584099911,365.75331741699995,None,365.855134107,None,366.85377175999986,None,371.8577407649999,None,371.8577407649999,None,j,0.6969222380000701,371.8577407649999,None,372.58988342500004,None,,,,,,,NS,2022_Mar_07_1331,rdk-discrimination,2021.2.3,59.93825975636707,
none,right,,,,,0,33,33,67,0.015350880099958886,1.0153508800999589,374.073608927,None,374.17514880199985,None,375.17433142899984,None,379.67849862800006,None,379.67849862800006,None,f,1.2761296779999611,379.67849862800006,None,380.99462769599984,None,,,,,,,NS,2022_Mar_07_1331,rdk-discrimination,2021.2.3,59.93825975636707,
left,left,,,,,0,34,34,10,0.015359041099827664,1.0153590410998277,382.47769200899995,None,383.6811936099999,None,384.6789860109999,None,388.0830707209999,None,388.0830707209999,None,f,0.7354032590001225,388.0830707209999,None,388.86420579,None,,,,,,,NS,2022_Mar_07_1331,rdk-discrimination,2021.2.3,59.93825975636707,
none,left,,,,,0,35,35,46,0.015346732099942528,1.0153467320999425,390.34784861499986,None,390.44969974599996,None,391.44878017400004,None,394.8521057009999,None,394.8521057009999,None,j,0.7265014409999822,394.8521057009999,None,395.60462528999994,None,,,,,,,NS,2022_Mar_07_1331,rdk-discrimination,2021.2.3,59.93825975636707,
right,left,,,,,0,36,36,36,0.015351535100080582,1.0153515351000806,397.10104114700005,None,397.203182675,None,398.201883868,None,402.70575161499994,None,402.70575161499994,None,f,0.920830813999828,402.70575161499994,None,403.65483608099987,None,,,,,,,NS,2022_Mar_07_1331,rdk-discrimination,2021.2.3,59.93825975636707,
left,left,,,,,0,37,37,5,0.015334628099935799,1.0153346280999358,405.13884901999984,None,406.34103218200005,None,407.339892051,None,411.343451779,None,411.343451779,None,f,0.7151039370000944,411.343451779,None,412.09193405200006,None,,,,,,,NS,2022_Mar_07_1331,rdk-discrimination,2021.2.3,59.93825975636707,
none,left,,,,,0,38,38,47,0.015342717100111258,1.0153427171001113,413.57617888599987,None,413.6773043029999,None,414.67652079599986,None,419.68160416700005,None,419.68160416700005,None,f,1.0728663879999658,419.68160416700005,None,420.79719763900005,None,,,,,,,NS,2022_Mar_07_1331,rdk-discrimination,2021.2.3,59.93825975636707,
none,right,,,,,0,39,39,60,0.015356058099996517,1.0153560580999965,422.29632835899986,None,422.3985853779999,None,423.39725659299995,None,426.8005994219999,None,426.8005994219999,None,j,0.7619627509998281,426.8005994219999,None,427.5858452389999,None,,,,,,,NS,2022_Mar_07_1331,rdk-discrimination,2021.2.3,59.93825975636707,
right,right,,,,,0,40,40,30,0.015319382099960421,1.0153193820999604,429.08288444799985,None,429.88516079399994,None,430.884046519,None,434.28735134199985,None,434.28735134199985,None,j,0.739271601999917,434.28735134199985,None,435.06951224399984,None,,,,,,,NS,2022_Mar_07_1331,rdk-discrimination,2021.2.3,59.93825975636707,
none,left,,,,,0,41,41,57,0.015315792099954706,1.0153157920999547,436.55327947700005,None,436.66974930899994,None,437.67042294400005,None,442.675976739,None,442.675976739,None,f,0.8786064590001388,442.675976739,None,443.57390977500006,None,,,,,,,NS,2022_Mar_07_1331,rdk-discrimination,2021.2.3,59.93825975636707,
none,left,,,,,0,42,42,48,0.015326938100088228,1.0153269381000882,445.05704779899986,None,446.25927104999994,None,447.258495531,None,450.66187618799984,None,450.66187618799984,None,j,0.8766843769999468,450.66187618799984,None,451.57746534599994,None,,,,,,,NS,2022_Mar_07_1331,rdk-discrimination,2021.2.3,59.93825975636707,
none,right,,,,,0,43,43,70,0.015312999099933222,1.0153129990999332,453.06141077099994,None,454.26323395999987,None,455.262324506,None,458.6656113779999,None,458.6656113779999,None,j,0.6729649349999818,458.6656113779999,None,459.3809228879999,None,,,,,,,NS,2022_Mar_07_1331,rdk-discrimination,2021.2.3,59.93825975636707,
none,right,,,,,0,44,44,79,0.015318217100002585,1.0153182171000026,460.8645402169999,None,461.21646160399985,None,462.2156398359999,None,466.71969763899995,None,466.71969763899995,None,j,0.7707760329999473,466.71969763899995,None,467.5352358829999,None,,,,,,,NS,2022_Mar_07_1331,rdk-discrimination,2021.2.3,59.93825975636707,
left,right,,,,,0,45,45,32,0.015319333100023869,1.0153193331000239,469.01864193799986,None,469.8213155949999,None,470.81994496799996,None,475.32417002,None,475.32417002,None,j,0.990572985999961,475.32417002,None,476.35588945300003,None,,,,,,,NS,2022_Mar_07_1331,rdk-discrimination,2021.2.3,59.93825975636707,
right,right,,,,,0,46,46,18,0.015327569099781613,1.0153275690997816,477.8393703999999,None,477.94165898099993,None,478.94022558799986,None,483.9444797709999,None,483.9444797709999,None,j,0.7061758349998399,483.9444797709999,None,484.678973855,None,,,,,,,NS,2022_Mar_07_1331,rdk-discrimination,2021.2.3,59.93825975636707,
right,right,,,,,0,47,47,16,0.015322855099839217,1.0153228550998392,486.17659307199995,None,487.3790232339999,None,488.378121889,None,492.3817879479999,None,492.3817879479999,None,j,0.7168488609997894,492.3817879479999,None,493.1332666709999,None,,,,,,,NS,2022_Mar_07_1331,rdk-discrimination,2021.2.3,59.93825975636707,
right,right,,,,,0,48,48,24,0.015326036100077545,1.0153260361000775,494.63059140100006,None,495.8334064239999,None,496.832254629,None,501.33596900300006,None,501.33596900300006,None,j,0.46664283199993406,501.33596900300006,None,501.83476058300005,None,,,,,,,NS,2022_Mar_07_1331,rdk-discrimination,2021.2.3,59.93825975636707,
right,right,,,,,0,49,49,28,0.015316209100092237,1.0153162091000922,503.3181728789999,None,503.670483903,None,504.66904139099995,None,509.67369359999987,None,509.67369359999987,None,j,0.6649116880000747,509.67369359999987,None,510.3582191219999,None,,,,,,,NS,2022_Mar_07_1331,rdk-discrimination,2021.2.3,59.93825975636707,
left,left,,,,,0,50,50,11,0.015354918100001669,1.0153549181000017,511.855504561,None,513.0584546439999,None,514.057042045,None,517.460646935,None,517.460646935,None,f,0.6779704439998113,517.460646935,None,518.17660031,None,,,,,,,NS,2022_Mar_07_1331,rdk-discrimination,2021.2.3,59.93825975636707,
left,left,,,,,0,51,51,8,0.015351308099980088,1.01535130809998,519.675818008,None,519.7781690339999,None,520.776677033,None,524.78032298,None,524.78032298,None,j,0.6622263980000298,524.78032298,None,525.4791849439999,None,,,,,,,NS,2022_Mar_07_1331,rdk-discrimination,2021.2.3,59.93825975636707,
none,left,,,,,0,52,52,44,0.015322049100177537,1.0153220491001775,526.962744215,None,528.164931914,None,529.1639014159999,None,532.567433609,None,532.567433609,None,f,1.0031233880001764,532.567433609,None,533.599627403,None,,,,,,,NS,2022_Mar_07_1331,rdk-discrimination,2021.2.3,59.93825975636707,
none,left,,,,,0,53,53,40,0.015315852100229677,1.0153158521002297,535.083179931,None,535.18514522,None,536.183870446,None,540.6877615729999,None,540.6877615729999,None,f,1.146827574000099,540.6877615729999,None,541.8708570339999,None,,,,,,,NS,2022_Mar_07_1331,rdk-discrimination,2021.2.3,59.93825975636707,
none,left,,,,,0,54,54,43,0.01533968410012676,1.0153396841001268,543.353812816,None,544.5559391199998,None,545.555368767,None,550.0589433459999,None,550.0589433459999,None,j,1.0237117530000432,550.0589433459999,None,551.1246661469999,None,,,,,,,NS,2022_Mar_07_1331,rdk-discrimination,2021.2.3,59.93825975636707,
right,left,,,,,0,55,55,37,0.015309386099943367,1.0153093860999434,552.608116455,None,553.8104524439999,None,554.8095800919999,None,558.213033565,None,558.213033565,None,f,0.8455802020000647,558.213033565,None,559.094919578,None,,,,,,,NS,2022_Mar_07_1331,rdk-discrimination,2021.2.3,59.93825975636707,
none,left,,,,,0,56,56,59,0.015322768099849782,1.0153227680998498,560.579456023,None,561.7805885429999,None,562.7800793569999,None,566.783580611,None,566.783580611,None,f,1.0430512739999358,566.783580611,None,567.86572435,None,,,,,,,NS,2022_Mar_07_1331,rdk-discrimination,2021.2.3,59.93825975636707,
right,right,,,,,0,57,57,26,0.015323943099929238,1.0153239430999292,569.3496143419999,None,570.5516737939998,None,571.5507816149999,None,575.5542489589999,None,575.5542489589999,None,j,0.6883388969999942,575.5542489589999,None,576.270642935,None,,,,,,,NS,2022_Mar_07_1331,rdk-discrimination,2021.2.3,59.93825975636707,
left,left,,,,,0,58,58,7,0.015324210100288838,1.0153242101002888,577.753556234,None,577.855862818,None,578.854299062,None,583.858338531,None,583.858338531,None,f,1.0161839889999555,583.858338531,None,584.9082372899999,None,,,,,,,NS,2022_Mar_07_1331,rdk-discrimination,2021.2.3,59.93825975636707,
none,right,,,,,0,59,59,77,0.015303288099858037,1.015303288099858,586.390797164,None,586.74289883,None,587.7417321459999,None,592.246028983,None,592.246028983,None,j,0.8286123990001215,592.246028983,None,593.110826661,None,,,,,,,NS,2022_Mar_07_1331,rdk-discrimination,2021.2.3,59.93825975636707,
none,right,,,,,0,60,60,75,0.015324373100384037,1.015324373100384,594.5946613069999,None,594.9465468949999,None,595.945647187,None,599.3491625119999,None,599.3491625119999,None,j,0.7094849259999592,599.3491625119999,None,600.0976953609999,None,,,,,,,NS,2022_Mar_07_1331,rdk-discrimination,2021.2.3,59.93825975636707,
left,right,,,,,0,61,61,35,0.015360140100256103,1.015360140100256,601.5816549319999,None,601.683911123,None,602.6820316309999,None,607.185942904,None,607.185942904,None,j,0.8005397780000294,607.185942904,None,608.0206797459999,None,,,,,,,NS,2022_Mar_07_1331,rdk-discrimination,2021.2.3,59.93825975636707,
right,right,,,,,0,62,62,21,0.015319822099854719,1.0153198220998547,609.5187695609999,None,610.720984053,None,611.719842054,None,616.7240134689999,None,616.7240134689999,None,j,0.646661019000021,616.7240134689999,None,617.406078398,None,,,,,,,NS,2022_Mar_07_1331,rdk-discrimination,2021.2.3,59.93825975636707,
left,right,,,,,0,63,63,34,0.01533389810015251,1.0153338981001525,618.8895265699999,None,618.99258187,None,619.99042122,None,623.3940200389999,None,623.3940200389999,None,j,1.0004639680000764,623.3940200389999,None,624.429714111,None,,,,,,,NS,2022_Mar_07_1331,rdk-discrimination,2021.2.3,59.93825975636707,
left,left,,,,,0,64,64,1,0.015354150100165498,1.0153541501001655,625.9266997779999,None,626.2787592359999,None,627.2771962749999,None,631.280922653,None,631.280922653,None,f,1.0577406919999248,631.280922653,None,632.379697645,None,,,,,,,NS,2022_Mar_07_1331,rdk-discrimination,2021.2.3,59.93825975636707,
none,right,,,,,0,65,65,65,0.015327568100246936,1.015327568100247,633.863781936,None,633.9650121880001,None,634.9642238159998,None,638.367744216,None,638.367744216,None,j,0.8668065940000815,638.367744216,None,639.266410975,None,,,,,,,NS,2022_Mar_07_1331,rdk-discrimination,2021.2.3,59.93825975636707,
left,left,,,,,0,66,66,14,0.015329539100321199,1.0153295391003212,640.7498877449999,None,641.9524191649999,None,642.951296584,None,646.9551268229999,None,646.9551268229999,None,None,,646.9551268229999,None,648.470889139,None,,,,,,,NS,2022_Mar_07_1331,rdk-discrimination,2021.2.3,59.93825975636707,
none,left,,,,,0,67,67,53,0.015469583099957163,1.0154695830999572,649.93773542,None,650.039481124,None,651.038412647,None,655.5423439959999,None,655.5423439959999,None,f,0.8923251530000016,655.5423439959999,None,656.474359852,None,,,,,,,NS,2022_Mar_07_1331,rdk-discrimination,2021.2.3,59.93825975636707,
none,left,,,,,0,68,68,55,0.015317540100113547,1.0153175401001135,657.958515275,None,658.059756492,None,659.0589857419999,None,664.063073998,None,664.063073998,None,j,0.6195467139998527,664.063073998,None,664.728329316,None,,,,,,,NS,2022_Mar_07_1331,rdk-discrimination,2021.2.3,59.93825975636707,
none,left,,,,,0,69,69,49,0.015317372100071225,1.0153173721000712,666.211989086,None,666.5638359559999,None,667.562953606,None,672.067111426,None,672.067111426,None,j,0.839512035000098,672.067111426,None,672.9489300219999,None,,,,,,,NS,2022_Mar_07_1331,rdk-discrimination,2021.2.3,59.93825975636707,
right,right,,,,,0,70,70,22,0.015323535099923902,1.015323535099924,674.4324868499999,None,674.7849263449999,None,675.783347206,None,680.2874901889999,None,680.2874901889999,None,j,0.6190028769999572,680.2874901889999,None,680.9528462760001,None,,,,,,,NS,2022_Mar_07_1331,rdk-discrimination,2021.2.3,59.93825975636707,
none,right,,,,,0,71,71,61,0.015349854100122684,1.0153498541001227,682.436975641,None,683.6387153939999,None,684.637684492,None,688.641433721,None,688.641433721,None,j,0.6090400359998966,688.641433721,None,689.276069831,None,,,,,,,NS,2022_Mar_07_1331,rdk-discrimination,2021.2.3,59.93825975636707,
none,right,,,,,0,72,72,73,0.015313060099970244,1.0153130600999702,690.773900734,None,690.8752296039999,None,691.8744963099999,None,695.878187361,None,695.878187361,None,j,0.9562810150000587,695.878187361,None,696.8767724839998,None,,,,,,,NS,2022_Mar_07_1331,rdk-discrimination,2021.2.3,59.93825975636707,
none,right,,,,,0,73,73,66,0.015320679100113921,1.015320679100114,698.360794482,None,699.5628341999999,None,700.5619263129998,None,704.5655787699999,None,704.5655787699999,None,j,0.6049474779999855,704.5655787699999,None,705.197810521,None,,,,,,,NS,2022_Mar_07_1331,rdk-discrimination,2021.2.3,59.93825975636707,
right,left,,,,,0,74,74,38,0.015285242099935203,1.0152852420999352,706.6812899,None,706.7836837429999,None,707.782217331,None,712.786737477,None,712.786737477,None,j,0.5517201389998263,712.786737477,None,713.384786321,None,,,,,,,NS,2022_Mar_07_1331,rdk-discrimination,2021.2.3,59.93825975636707,
right,left,,,,,0,75,75,39,0.015314773100044476,1.0153147731000445,714.869499715,None,715.220492326,None,716.219387729,None,719.622782583,None,719.622782583,None,f,0.8997846620000018,719.622782583,None,720.5549196429998,None,,,,,,,NS,2022_Mar_07_1331,rdk-discrimination,2021.2.3,59.93825975636707,
left,left,,,,,0,76,76,13,0.015297096100084673,1.0152970961000847,722.0384427999999,None,723.241406302,None,724.2398357419999,None,727.643408388,None,727.643408388,None,j,0.8151953890001096,727.643408388,None,728.495389346,None,,,,,,,NS,2022_Mar_07_1331,rdk-discrimination,2021.2.3,59.93825975636707,
none,right,,,,,0,77,77,78,0.015334467100046822,1.0153344671000468,729.99293856,None,730.094040431,None,731.093145379,None,736.097565417,None,736.097565417,None,j,0.5849171499999102,736.097565417,None,736.7291928579999,None,,,,,,,NS,2022_Mar_07_1331,rdk-discrimination,2021.2.3,59.93825975636707,
none,left,,,,,0,78,78,51,0.015295106099983968,1.015295106099984,738.213022173,None,738.314537177,None,739.313578466,None,743.317304454,None,743.317304454,None,j,0.7331731639999362,743.317304454,None,744.0826615259999,None,,,,,,,NS,2022_Mar_07_1331,rdk-discrimination,2021.2.3,59.93825975636707,
none,right,,,,,0,79,79,72,0.015318705100071384,1.0153187051000714,745.566388432,None,745.6680424709999,None,746.66712185,None,750.670929728,None,750.670929728,None,f,1.0356192340000234,750.670929728,None,751.738714664,None,,,,,,,NS,2022_Mar_07_1331,rdk-discrimination,2021.2.3,59.93825975636707,
right,right,,,,,1,0,80,18,0.015321260099881329,1.0153212600998813,753.23653372,None,754.4393954179999,None,755.4379704709999,None,759.941771179,None,759.941771179,None,j,0.38889252299986765,759.941771179,None,760.3737854269999,None,,,,,,,NS,2022_Mar_07_1331,rdk-discrimination,2021.2.3,59.93825975636707,
left,left,,,,,1,1,81,8,0.015313841099896308,1.0153138410998963,761.8574245659998,None,761.959795613,None,762.958194405,None,767.4620051829999,None,767.4620051829999,None,f,0.7326033150000058,767.4620051829999,None,768.2136860019999,None,,,,,,,NS,2022_Mar_07_1331,rdk-discrimination,2021.2.3,59.93825975636707,
none,right,,,,,1,2,82,69,0.01531281009988561,1.0153128100998856,769.711049114,None,769.812853179,None,770.8119694209998,None,774.215314511,None,774.215314511,None,j,0.771181641999874,774.215314511,None,775.030573509,None,,,,,,,NS,2022_Mar_07_1331,rdk-discrimination,2021.2.3,59.93825975636707,
left,left,,,,,1,3,83,6,0.01535345510001207,1.015353455100012,776.5143414539999,None,776.6166246399999,None,777.615172202,None,782.119135234,None,782.119135234,None,f,0.547552153000197,782.119135234,None,782.7009523959999,None,,,,,,,NS,2022_Mar_07_1331,rdk-discrimination,2021.2.3,59.93825975636707,
none,right,,,,,1,4,84,62,0.015322785099897374,1.0153227850998974,784.1845600569999,None,784.2862353239999,None,785.2853904509999,None,788.6888142909999,None,788.6888142909999,None,j,1.1297445809998408,788.6888142909999,None,789.855142083,None,,,,,,,NS,2022_Mar_07_1331,rdk-discrimination,2021.2.3,59.93825975636707,
none,left,,,,,1,5,85,51,0.015325512100162086,1.015325512100162,791.3382781469999,None,792.5393984809999,None,793.539324514,None,796.942784552,None,796.942784552,None,j,0.7158248179998736,796.942784552,None,797.6913869910001,None,,,,,,,NS,2022_Mar_07_1331,rdk-discrimination,2021.2.3,59.93825975636707,
none,right,,,,,1,6,86,61,0.01531361109982754,1.0153136110998275,799.175283406,None,799.976873581,None,800.976187484,None,805.980538551,None,805.980538551,None,j,0.6621085529998254,805.980538551,None,806.6789515889999,None,,,,,,,NS,2022_Mar_07_1331,rdk-discrimination,2021.2.3,59.93825975636707,
none,left,,,,,1,7,87,46,0.015316117100383053,1.015316117100383,808.16317199,None,808.964372265,None,809.963782418,None,813.367250833,None,813.367250833,None,f,0.6193114409998088,813.367250833,None,814.0190864759999,None,,,,,,,NS,2022_Mar_07_1331,rdk-discrimination,2021.2.3,59.93825975636707,
right,right,,,,,1,8,88,26,0.01533456710012615,1.0153345671001262,815.516085584,None,815.868374706,None,816.867062234,None,820.870840535,None,820.870840535,None,j,0.45175922799990076,820.870840535,None,821.3526356859999,None,,,,,,,NS,2022_Mar_07_1331,rdk-discrimination,2021.2.3,59.93825975636707,
none,left,,,,,1,9,89,48,0.01533417710015783,1.0153341771001578,822.8364099479999,None,823.1879719140001,None,824.1872422299999,None,829.191469517,None,829.191469517,None,f,0.6592045190000135,829.191469517,None,829.8899833209999,None,,,,,,,NS,2022_Mar_07_1331,rdk-discrimination,2021.2.3,59.93825975636707,
right,right,,,,,1,10,90,27,0.014913040099827413,1.0149130400998274,831.3736313629998,None,831.4759207189999,None,832.474516359,None,836.9789548519999,None,836.9789548519999,None,j,0.3916847150001104,836.9789548519999,None,837.411101517,None,,,,,,,NS,2022_Mar_07_1331,rdk-discrimination,2021.2.3,59.93825975636707,
none,right,,,,,1,11,91,71,0.015334524099898772,1.0153345240998988,838.894093517,None,839.6961538729998,None,840.695118876,None,844.698844273,None,844.698844273,None,j,1.0717276979999042,844.698844273,None,845.800506447,None,,,,,,,NS,2022_Mar_07_1331,rdk-discrimination,2021.2.3,59.93825975636707,
right,right,,,,,1,12,92,21,0.015321177100076966,1.015321177100077,847.2978294119999,None,848.100405867,None,849.099176799,None,852.5027382479999,None,852.5027382479999,None,j,0.49982824700009587,852.5027382479999,None,853.034963278,None,,,,,,,NS,2022_Mar_07_1331,rdk-discrimination,2021.2.3,59.93825975636707,
none,left,,,,,1,13,93,58,0.015323843100077283,1.0153238431000773,854.518115293,None,855.319800851,None,856.3191443939999,None,860.322916726,None,860.322916726,None,f,0.7195824170000833,860.322916726,None,861.0883024589999,None,,,,,,,NS,2022_Mar_07_1331,rdk-discrimination,2021.2.3,59.93825975636707,
none,left,,,,,1,14,94,45,0.015321730099913111,1.0153217300999131,862.5723573399999,None,862.9235620559999,None,863.922723621,None,868.426763738,None,868.426763738,None,j,1.1118644810001115,868.426763738,None,869.5755300079999,None,,,,,,,NS,2022_Mar_07_1331,rdk-discrimination,2021.2.3,59.93825975636707,
left,right,,,,,1,15,95,34,0.01531367310008136,1.0153136731000814,871.059284737,None,871.4117234199999,None,872.410202404,None,875.813855067,None,875.813855067,None,f,0.7007373010001174,875.813855067,None,876.562363746,None,,,,,,,NS,2022_Mar_07_1331,rdk-discrimination,2021.2.3,59.93825975636707,
right,right,,,,,1,16,96,16,0.015325350099828938,1.015325350099829,878.0460016379999,None,878.8479708379999,None,879.847026263,None,884.8511026779998,None,884.8511026779998,None,j,0.5834631469999749,884.8511026779998,None,885.466605021,None,,,,,,,NS,2022_Mar_07_1331,rdk-discrimination,2021.2.3,59.93825975636707,
left,left,,,,,1,17,97,13,0.015351825099969574,1.0153518250999696,886.949981824,None,887.7524599759998,None,888.7511797829999,None,892.7549414639999,None,892.7549414639999,None,f,0.6076301909999984,892.7549414639999,None,893.3880827419999,None,,,,,,,NS,2022_Mar_07_1331,rdk-discrimination,2021.2.3,59.93825975636707,
none,left,,,,,1,18,98,49,0.01530720410005415,1.0153072041000542,894.8875399969999,None,896.0892504769998,None,897.0885975139998,None,901.0925859099999,None,901.0925859099999,None,j,0.789957202999858,901.0925859099999,None,901.9096917979999,None,,,,,,,NS,2022_Mar_07_1331,rdk-discrimination,2021.2.3,59.93825975636707,
none,left,,,,,1,19,99,54,0.015343608100010897,1.015343608100011,903.4080299369999,None,903.7597266629999,None,904.7587945849999,None,909.263638172,None,909.263638172,None,f,0.6910092830000849,909.263638172,None,909.994609295,None,,,,,,,NS,2022_Mar_07_1331,rdk-discrimination,2021.2.3,59.93825975636707,
none,left,,,,,1,20,100,53,0.015336671099930754,1.0153366710999308,911.478102463,None,912.2808220169999,None,913.2795081979999,None,917.2829623639999,None,917.2829623639999,None,j,0.7996258949999628,917.2829623639999,None,918.1151486499999,None,,,,,,,NS,2022_Mar_07_1331,rdk-discrimination,2021.2.3,59.93825975636707,
right,right,,,,,1,21,101,31,0.015350790100001177,1.0153507901000012,919.5986742829999,None,919.950712082,None,920.9498067159999,None,925.4536981549999,None,925.4536981549999,None,j,1.0448598649998075,925.4536981549999,None,926.5359917969998,None,,,,,,,NS,2022_Mar_07_1331,rdk-discrimination,2021.2.3,59.93825975636707,
left,right,,,,,1,22,102,32,0.015362857100171823,1.0153628571001718,928.0197465370001,None,929.2220220359999,None,930.2208827839999,None,935.2251165219999,None,935.2251165219999,None,j,0.9694580060001954,935.2251165219999,None,936.2244398229999,None,,,,,,,NS,2022_Mar_07_1331,rdk-discrimination,2021.2.3,59.93825975636707,
left,left,,,,,1,23,103,9,0.015358720100039136,1.0153587201000391,937.707628929,None,938.911686066,None,939.9089762259999,None,943.3123236149999,None,943.3123236149999,None,f,0.6341781789999459,943.3123236149999,None,943.980571873,None,,,,,,,NS,2022_Mar_07_1331,rdk-discrimination,2021.2.3,59.93825975636707,
right,right,,,,,1,24,104,24,0.01534862609969423,1.0153486260996942,945.47773946,None,945.8298748379999,None,946.8286264529999,None,951.3325473449999,None,951.3325473449999,None,j,0.4780795870001384,951.3325473449999,None,951.847896938,None,,,,,,,NS,2022_Mar_07_1331,rdk-discrimination,2021.2.3,59.93825975636707,
left,left,,,,,1,25,105,1,0.01531713210010821,1.0153171321001082,953.3315360579999,None,953.683810057,None,954.682274765,None,959.1862734129999,None,959.1862734129999,None,f,0.6643843790000119,959.1862734129999,None,959.8859322069999,None,,,,,,,NS,2022_Mar_07_1331,rdk-discrimination,2021.2.3,59.93825975636707,
none,right,,,,,1,26,106,79,0.015518088099952365,1.0155180880999524,961.37035409,None,962.187123172,None,963.186485072,None,966.5899120129999,None,966.5899120129999,None,j,0.6685673049998968,966.5899120129999,None,967.292040956,None,,,,,,,NS,2022_Mar_07_1331,rdk-discrimination,2021.2.3,59.93825975636707,
left,left,,,,,1,27,107,10,0.0153271561002839,1.015327156100284,968.788767977,None,969.141199558,None,970.1397689730001,None,975.144028043,None,975.144028043,None,f,0.9945914820000326,975.144028043,None,976.1599990419999,None,,,,,,,NS,2022_Mar_07_1331,rdk-discrimination,2021.2.3,59.93825975636707,
left,left,,,,,1,28,108,11,0.015604583099957381,1.0156045830999574,977.643204138,None,977.9953989929999,None,978.9939415289999,None,983.4980491369998,None,983.4980491369998,None,j,0.6324595080000108,983.4980491369998,None,984.163288242,None,,,,,,,NS,2022_Mar_07_1331,rdk-discrimination,2021.2.3,59.93825975636707,
none,left,,,,,1,29,109,42,0.015300103100116758,1.0153001031001168,985.6471463499998,None,986.4485945329999,None,987.4479614779999,None,991.4518671269999,None,991.4518671269999,None,j,0.710818879000044,991.4518671269999,None,992.2034036809999,None,,,,,,,NS,2022_Mar_07_1331,rdk-discrimination,2021.2.3,59.93825975636707,
none,left,,,,,1,30,110,43,0.015351843099779217,1.0153518430997792,993.7014953269999,None,994.5029051559999,None,995.501683459,None,999.5058812819999,None,999.5058812819999,None,f,0.6807441350001682,999.5058812819999,None,1000.207112958,None,,,,,,,NS,2022_Mar_07_1331,rdk-discrimination,2021.2.3,59.93825975636707,
left,left,,,,,1,31,111,0,0.015326821100188681,1.0153268211001887,1001.705021954,None,1002.907512961,None,1003.905913875,None,1008.4100652869998,None,1008.4100652869998,None,j,1.1444104150000385,1008.4100652869998,None,1009.591937264,None,,,,,,,NS,2022_Mar_07_1331,rdk-discrimination,2021.2.3,59.93825975636707,
right,right,,,,,1,32,112,22,0.015321876099960718,1.0153218760999607,1011.075469109,None,1011.177758485,None,1012.176421968,None,1016.680350404,None,1016.680350404,None,j,0.6101371519998793,1016.680350404,None,1017.3288993329999,None,,,,,,,NS,2022_Mar_07_1331,rdk-discrimination,2021.2.3,59.93825975636707,
left,left,,,,,1,33,113,15,0.015317406100166409,1.0153174061001664,1018.812711978,None,1018.914865889,None,1019.9135093889998,None,1024.4175642609998,None,1024.4175642609998,None,f,0.5610764059999838,1024.4175642609998,None,1025.016592686,None,,,,,,,NS,2022_Mar_07_1331,rdk-discrimination,2021.2.3,59.93825975636707,
none,left,,,,,1,34,114,40,0.015327860099660029,1.01532786009966,1026.500095039,None,1027.702130966,None,1028.7010092350001,None,1032.7047857349999,None,1032.7047857349999,None,j,0.49786063900000954,1032.7047857349999,None,1033.2363089159999,None,,,,,,,NS,2022_Mar_07_1331,rdk-discrimination,2021.2.3,59.93825975636707,
none,right,,,,,1,35,115,73,0.015309699100271246,1.0153096991002712,1034.7202910749997,None,1034.821643451,None,1035.821402298,None,1039.224454022,None,1039.224454022,None,j,0.7540375989999575,1039.224454022,None,1040.0229360509998,None,,,,,,,NS,2022_Mar_07_1331,rdk-discrimination,2021.2.3,59.93825975636707,
right,left,,,,,1,36,116,38,0.015335921099904226,1.0153359210999042,1041.506619548,None,1042.309104304,None,1043.307767529,None,1047.811991638,None,1047.811991638,None,j,1.262577543000134,1047.811991638,None,1049.0972618329997,None,,,,,,,NS,2022_Mar_07_1331,rdk-discrimination,2021.2.3,59.93825975636707,
right,right,,,,,1,37,117,19,0.015324632099691371,1.0153246320996914,1050.59443418,None,1050.6963576120002,None,1051.6952210159998,None,1055.698834848,None,1055.698834848,None,j,0.6797799169999053,1055.698834848,None,1056.413804875,None,,,,,,,NS,2022_Mar_07_1331,rdk-discrimination,2021.2.3,59.93825975636707,
right,left,,,,,1,38,118,37,0.015305684099985228,1.0153056840999852,1057.8977005719998,None,1058.249897448,None,1059.2486895450002,None,1064.2529495549998,None,1064.2529495549998,None,f,0.9415808740000102,1064.2529495549998,None,1065.2191040960001,None,,,,,,,NS,2022_Mar_07_1331,rdk-discrimination,2021.2.3,59.93825975636707,
none,left,,,,,1,39,119,44,0.015324030099918673,1.0153240300999187,1066.7018500969998,None,1067.0537568559998,None,1068.0527244679997,None,1072.056947609,None,1072.056947609,None,j,0.6175192630000765,1072.056947609,None,1072.7218688389999,None,,,,,,,NS,2022_Mar_07_1331,rdk-discrimination,2021.2.3,59.93825975636707,
left,left,,,,,1,40,120,4,0.015336443099840835,1.0153364430998408,1074.2053273239999,None,1075.0078834739998,None,1076.0066865529998,None,1080.510462629,None,1080.510462629,None,f,0.5321258320000197,1080.510462629,None,1081.075809604,None,,,,,,,NS,2022_Mar_07_1331,rdk-discrimination,2021.2.3,59.93825975636707,
none,left,,,,,1,41,121,50,0.015328331100135983,1.015328331100136,1082.5593458170001,None,1083.36168585,None,1084.360626821,None,1089.3648574170002,None,1089.3648574170002,None,f,0.8137533350000012,1089.3648574170002,None,1090.1993827410001,None,,,,,,,NS,2022_Mar_07_1331,rdk-discrimination,2021.2.3,59.93825975636707,
none,right,,,,,1,42,122,68,0.01525371109983098,1.015253711099831,1091.6970453559998,None,1091.7988691599999,None,1092.797903053,None,1097.8021690269998,None,1097.8021690269998,None,j,0.8003134310001769,1097.8021690269998,None,1098.650785707,None,,,,,,,NS,2022_Mar_07_1331,rdk-discrimination,2021.2.3,59.93825975636707,
right,right,,,,,1,43,123,23,0.015325663100156817,1.0153256631001568,1100.1343774440002,None,1100.236837242,None,1101.235308196,None,1104.638520465,None,1104.638520465,None,j,0.7241102010000304,1104.638520465,None,1105.4039898659998,None,,,,,,,NS,2022_Mar_07_1331,rdk-discrimination,2021.2.3,59.93825975636707,
right,left,,,,,1,44,124,39,0.015348114099424492,1.0153481140994245,1106.8875051569999,None,1107.2401961709998,None,1108.2384629560001,None,1111.6426472140001,None,1111.6426472140001,None,j,0.5039289660001032,1111.6426472140001,None,1112.1905645809998,None,,,,,,,NS,2022_Mar_07_1331,rdk-discrimination,2021.2.3,59.93825975636707,
none,right,,,,,1,45,125,66,0.015359393099970475,1.0153593930999705,1113.67407425,None,1114.025951902,None,1115.025240893,None,1119.5290004889998,None,1119.5290004889998,None,j,0.737492876000033,1119.5290004889998,None,1120.2943316729998,None,,,,,,,NS,2022_Mar_07_1331,rdk-discrimination,2021.2.3,59.93825975636707,
none,right,,,,,1,46,126,74,0.01532297110043146,1.0153229711004315,1121.7779231589998,None,1122.5799893849999,None,1123.579148757,None,1126.9826064889999,None,1126.9826064889999,None,j,0.8600506909999694,1126.9826064889999,None,1127.882043831,None,,,,,,,NS,2022_Mar_07_1331,rdk-discrimination,2021.2.3,59.93825975636707,
left,right,,,,,1,47,127,35,0.015349191099858217,1.0153491910998582,1129.3651208659999,None,1130.167447677,None,1131.1660681449998,None,1135.1699899340001,None,1135.1699899340001,None,j,0.9046785389998604,1135.1699899340001,None,1136.1184495749999,None,,,,,,,NS,2022_Mar_07_1331,rdk-discrimination,2021.2.3,59.93825975636707,
right,right,,,,,1,48,128,20,0.015319816099918171,1.0153198160999182,1137.6023666329997,None,1137.7045477689999,None,1138.703406051,None,1142.706775087,None,1142.706775087,None,j,0.7517112909999923,1142.706775087,None,1143.476110645,None,,,,,,,NS,2022_Mar_07_1331,rdk-discrimination,2021.2.3,59.93825975636707,
none,left,,,,,1,49,129,47,0.015352573100017253,1.0153525731000173,1144.972443302,None,1145.073167034,None,1146.0734098059997,None,1151.07747207,None,1151.07747207,None,f,1.3170777370000906,1151.07747207,None,1152.426254895,None,,,,,,,NS,2022_Mar_07_1331,rdk-discrimination,2021.2.3,59.93825975636707,
left,right,,,,,1,50,130,33,0.0153182390999973,1.0153182390999973,1153.9104936499998,None,1154.261786482,None,1155.260948836,None,1159.7648402609998,None,1159.7648402609998,None,j,1.2457375869998941,1159.7648402609998,None,1161.0470050879999,None,,,,,,,NS,2022_Mar_07_1331,rdk-discrimination,2021.2.3,59.93825975636707,
none,left,,,,,1,51,131,57,0.015328159099681216,1.0153281590996812,1162.5318644200001,None,1162.6320401110002,None,1163.631526777,None,1168.1918503050001,None,1168.1918503050001,None,j,0.9947332889996687,1168.1918503050001,None,1169.2492102340002,None,,,,,,,NS,2022_Mar_07_1331,rdk-discrimination,2021.2.3,59.93825975636707,
none,right,,,,,1,52,132,63,0.014112780100276723,1.0141127801002767,1170.766318779,None,1171.6000238440001,None,1172.585693984,None,1176.035593962,None,1176.035593962,None,f,1.1589727599998696,1176.035593962,None,1177.252474207,None,,,,,,,NS,2022_Mar_07_1331,rdk-discrimination,2021.2.3,59.93825975636707,
left,left,,,,,1,53,133,5,0.014219810099348251,1.0142198100993483,1178.792446432,None,1180.0077410530002,None,1181.006207111,None,1185.0396852600002,None,1185.0396852600002,None,f,0.890937385000143,1185.0396852600002,None,1186.0238024999999,None,,,,,,,NS,2022_Mar_07_1331,rdk-discrimination,2021.2.3,59.93825975636707,
none,right,,,,,1,54,134,72,0.014218270100172958,1.014218270100173,1187.5576183490002,None,1188.408036544,None,1189.4113481540003,None,1193.460468532,None,1193.460468532,None,j,1.1021211100000983,1193.460468532,None,1194.6322927320002,None,,,,,,,NS,2022_Mar_07_1331,rdk-discrimination,2021.2.3,59.93825975636707,
none,right,,,,,1,55,135,64,0.014072885099722043,1.014072885099722,1196.178302277,None,1196.5785865070002,None,1197.5822276510003,None,1201.58528011,None,1201.58528011,None,j,1.2733314319998499,1201.58528011,None,1202.9168745850002,None,,,,,,,NS,2022_Mar_07_1331,rdk-discrimination,2021.2.3,59.93825975636707,
left,left,,,,,1,56,136,3,0.01419902009956786,1.0141990200995679,1204.4657282990001,None,1204.8717538790002,None,1205.8687280240001,None,1210.894874743,None,1210.894874743,None,f,0.8838092040000447,1210.894874743,None,1211.856404522,None,,,,,,,NS,2022_Mar_07_1331,rdk-discrimination,2021.2.3,59.93825975636707,
none,left,,,,,1,57,137,56,0.014206245100012893,1.014206245100013,1213.4031432870001,None,1214.206645108,None,1215.205870445,None,1218.665193075,None,1218.665193075,None,j,0.7454200150000361,1218.665193075,None,1219.472742635,None,,,,,,,NS,2022_Mar_07_1331,rdk-discrimination,2021.2.3,59.93825975636707,
none,right,,,,,1,58,138,60,0.01417429010007254,1.0141742901000725,1221.01279986,None,1221.173626445,None,1222.176754744,None,1226.726117703,None,1226.726117703,None,j,1.0844097650001459,1226.726117703,None,1227.914547543,None,,,,,,,NS,2022_Mar_07_1331,rdk-discrimination,2021.2.3,59.93825975636707,
none,left,,,,,1,59,139,52,0.014202460100023018,1.014202460100023,1229.460739232,None,1229.860939152,None,1230.846657642,None,1235.874210896,None,1235.874210896,None,f,1.136291243999949,1235.874210896,None,1237.097954365,None,,,,,,,NS,2022_Mar_07_1331,rdk-discrimination,2021.2.3,59.93825975636707,
none,right,,,,,1,60,140,65,0.014216260100511136,1.0142162601005111,1238.6151269749998,None,1238.7651911050002,None,1239.768391185,None,1243.2109141240003,None,1243.2109141240003,None,j,1.1196648089999144,1243.2109141240003,None,1244.384497783,None,,,,,,,NS,2022_Mar_07_1331,rdk-discrimination,2021.2.3,59.93825975636707,
right,right,,,,,1,61,141,28,0.014171180100220226,1.0141711801002202,1245.918530283,None,1247.1692249520001,None,1248.172155797,None,1252.2217516260002,None,1252.2217516260002,None,j,0.8367497700000968,1252.2217516260002,None,1253.1552838110001,None,,,,,,,NS,2022_Mar_07_1331,rdk-discrimination,2021.2.3,59.93825975636707,
left,left,,,,,1,62,142,7,0.01425850010036811,1.014258500100368,1254.689449005,None,1254.8396095950002,None,1255.8427647449998,None,1259.9094169740001,None,1259.9094169740001,None,f,0.7331032150000283,1259.9094169740001,None,1260.7094147840003,None,,,,,,,NS,2022_Mar_07_1331,rdk-discrimination,2021.2.3,59.93825975636707,
none,right,,,,,1,63,143,75,0.012435470100172097,1.012435470100172,1262.2274135379998,None,1263.4768775830003,None,1264.481984138,None,1269.513700041,None,1269.513700041,None,j,0.7689354799999819,1269.513700041,None,1270.3489604659999,None,,,,,,,NS,2022_Mar_07_1331,rdk-discrimination,2021.2.3,59.93825975636707,
left,left,,,,,1,64,144,12,0.01416954009937399,1.014169540099374,1271.887032516,None,1273.131447065,None,1274.13432849,None,1278.667611324,None,1278.667611324,None,f,0.6629936990002534,1278.667611324,None,1279.3844572829998,None,,,,,,,NS,2022_Mar_07_1331,rdk-discrimination,2021.2.3,59.93825975636707,
none,right,,,,,1,65,145,67,0.014191565100190928,1.014191565100191,1280.918559448,None,1282.152441568,None,1283.1556183369999,None,1287.7050341560002,None,1287.7050341560002,None,j,1.0415503350000108,1287.7050341560002,None,1288.794637591,None,,,,,,,NS,2022_Mar_07_1331,rdk-discrimination,2021.2.3,59.93825975636707,
none,left,,,,,1,66,146,41,0.014125150099516759,1.0141251500995168,1290.3395712450001,None,1290.74007468,None,1291.7435658949998,None,1295.1919845390003,None,1295.1919845390003,None,f,0.8345072750003055,1295.1919845390003,None,1296.076976459,None,,,,,,,NS,2022_Mar_07_1331,rdk-discrimination,2021.2.3,59.93825975636707,
none,right,,,,,1,67,147,77,0.014125405100003263,1.0141254051000033,1297.5930770680002,None,1298.843544283,None,1299.846299323,None,1304.8726250509999,None,1304.8726250509999,None,j,0.7458948200001032,1304.8726250509999,None,1305.681180771,None,,,,,,,NS,2022_Mar_07_1331,rdk-discrimination,2021.2.3,59.93825975636707,
none,right,,,,,1,68,148,70,0.014203125099811587,1.0142031250998116,1307.1976476260002,None,1308.031658805,None,1309.03434101,None,1313.567328534,None,1313.567328534,None,j,0.8912609250000969,1313.567328534,None,1314.536710199,None,,,,,,,NS,2022_Mar_07_1331,rdk-discrimination,2021.2.3,59.93825975636707,
right,right,,,,,1,69,149,25,0.014217425100014225,1.0142174251000142,1316.0743466580002,None,1316.2352718830002,None,1317.2382479880002,None,1320.6706799419999,None,1320.6706799419999,None,j,0.45984202499994353,1320.6706799419999,None,1321.2209121820001,None,,,,,,,NS,2022_Mar_07_1331,rdk-discrimination,2021.2.3,59.93825975636707,
left,left,,,,,1,70,150,2,0.013326790100109065,1.013326790100109,1322.738312721,None,1323.5886944210001,None,1324.589617141,None,1329.6444503890002,None,1329.6444503890002,None,f,0.7021157399999538,1329.6444503890002,None,1330.4091155840001,None,,,,,,,NS,2022_Mar_07_1331,rdk-discrimination,2021.2.3,59.93825975636707,
right,right,,,,,1,71,151,30,0.013887350100048934,1.013887350100049,1331.9433476039999,None,1332.343737874,None,1333.344086308,None,1338.402465922,None,1338.402465922,None,j,0.8961098600002515,1338.402465922,None,1339.364268027,None,,,,,,,NS,2022_Mar_07_1331,rdk-discrimination,2021.2.3,59.93825975636707,
right,right,,,,,1,72,152,29,0.01380361509973227,1.0138036150997323,1340.9144398110002,None,1341.0484473860001,None,1342.064837031,None,1347.10870918,None,1347.10870918,None,j,0.7417874590000793,1347.10870918,None,1347.9677361190002,None,,,,,,,NS,2022_Mar_07_1331,rdk-discrimination,2021.2.3,59.93825975636707,
left,left,,,,,1,73,153,14,0.013641075100167654,1.0136410751001677,1349.5025214040002,None,1350.752442684,None,1351.7699833030001,None,1356.8237806070001,None,1356.8237806070001,None,f,1.2346999090000281,1356.8237806070001,None,1358.159789246,None,,,,,,,NS,2022_Mar_07_1331,rdk-discrimination,2021.2.3,59.93825975636707,
none,right,,,,,1,74,154,78,0.014097695099735574,1.0140976950997356,1359.707171771,None,1360.5447805160002,None,1361.5577049449998,None,1365.6145143940003,None,1365.6145143940003,None,j,1.099974045000181,1365.6145143940003,None,1366.809589734,None,,,,,,,NS,2022_Mar_07_1331,rdk-discrimination,2021.2.3,59.93825975636707,
right,left,,,,,1,75,155,36,0.013898975099891686,1.0138989750998917,1368.343942379,None,1369.615336768,None,1370.617301458,None,1375.1519256269999,None,1375.1519256269999,None,j,0.74657332400011,1375.1519256269999,None,1376.014388351,None,,,,,,,NS,2022_Mar_07_1331,rdk-discrimination,2021.2.3,59.93825975636707,
right,right,,,,,1,76,156,17,0.014152390099752665,1.0141523900997527,1377.521975661,None,1377.698443376,None,1378.704780141,None,1382.1515205750002,None,1382.1515205750002,None,j,0.7470752849999371,1382.1515205750002,None,1382.9912464600002,None,,,,,,,NS,2022_Mar_07_1331,rdk-discrimination,2021.2.3,59.93825975636707,
none,right,,,,,1,77,157,76,0.013713280100091652,1.0137132801000917,1384.5346306340002,None,1384.937449469,None,1385.9418286989999,None,1390.508144082,None,1390.508144082,None,j,0.7744975249997879,1390.508144082,None,1391.375822337,None,,,,,,,NS,2022_Mar_07_1331,rdk-discrimination,2021.2.3,59.93825975636707,
none,left,,,,,1,78,158,55,0.014226670100015326,1.0142266701000153,1392.9054376620002,None,1393.739069757,None,1394.7411944660003,None,1399.77483682,None,1399.77483682,None,j,0.9558037400001922,1399.77483682,None,1400.808734875,None,,,,,,,NS,2022_Mar_07_1331,rdk-discrimination,2021.2.3,59.93825975636707,
none,left,,,,,1,79,159,59,0.014218240100035473,1.0142182401000355,1402.343829159,None,1403.576960929,None,1404.5801585230001,None,1409.629481817,None,1409.629481817,None,f,0.789083109999865,1409.629481817,None,1410.4799065070001,None,,,,,,,NS,2022_Mar_07_1331,rdk-discrimination,2021.2.3,59.93825975636707,
