cue,direction,practice_block_loop.thisRepN,practice_block_loop.thisTrialN,practice_block_loop.thisN,practice_block_loop.thisIndex,main_blocks_loop.thisRepN,main_blocks_loop.thisTrialN,main_blocks_loop.thisN,main_blocks_loop.thisIndex,static_isi.started,static_isi.stopped,fixation_pre.started,fixation_pre.stopped,image.started,image.stopped,fixation_post.started,fixation_post.stopped,dots_background.started,dots_background.stopped,dots_stimulus.started,dots_stimulus.stopped,dots_keyboard_response.keys,dots_keyboard_response.started,dots_keyboard_response.stopped,feedback_text.started,feedback_text.stopped,dots_keyboard_response.rt,instruction_main_text.started,instruction_main_text.stopped,instruction_main_keyboard_response.keys,instruction_main_keyboard_response.rt,instruction_main_keyboard_response.started,instruction_main_keyboard_response.stopped,Pseudonym,date,expName,psychopyVersion,frameRate,
left,left,0,0,0,0,,,,,0.00025762998848222196,1.0002576299884822,60.99864960000559,None,61.848519399994984,None,62.82276910000655,None,67.34139499999583,None,67.34139499999583,None,None,67.34139499999583,None,68.83375119999982,None,,,,,,,,sb,2022_Mar_06_0746,rdk-discrimination,2021.2.3,60.11544570619985,
none,left,0,1,1,4,,,,,0.014110830015852116,1.0141108300158521,70.30972190000466,None,70.66579100000672,None,71.66494220000459,None,75.67830519999552,None,75.67830519999552,None,j,75.67830519999552,None,76.07777859999624,None,0.3768142000044463,,,,,,,sb,2022_Mar_06_0746,rdk-discrimination,2021.2.3,60.11544570619985,
none,right,0,2,2,5,,,,,0.013705129997106269,1.0137051299971063,77.55318709999847,None,78.35916940000607,None,79.35829540000123,None,83.37151440000162,None,83.37151440000162,None,j,83.37151440000162,None,83.83795270000701,None,0.4427388000040082,,,,,,,sb,2022_Mar_06_0746,rdk-discrimination,2021.2.3,60.11544570619985,
right,right,0,3,3,1,,,,,0.013585330016212538,1.0135853300162125,85.31326280000212,None,85.66940470000554,None,86.66843710000103,None,91.6809540999966,None,91.6809540999966,None,j,91.6809540999966,None,92.04716040000494,None,0.34939639999356586,,,,,,,sb,2022_Mar_06_0746,rdk-discrimination,2021.2.3,60.11544570619985,
left,right,0,4,4,2,,,,,0.013610529989819042,1.013610529989819,93.5239287000004,None,94.72826010000426,None,95.72747179999715,None,99.14104149999912,None,99.14104149999912,None,f,99.14104149999912,None,99.84019449999323,None,0.6781067999982042,,,,,,,sb,2022_Mar_06_0746,rdk-discrimination,2021.2.3,60.11544570619985,
right,left,0,5,5,3,,,,,0.014314029991510324,1.0143140299915103,101.31675120000727,None,102.52125649999653,None,103.52062150000711,None,108.03332070000761,None,108.03332070000761,None,j,108.03332070000761,None,108.33308979999856,None,0.27705560000322293,,,,,,,sb,2022_Mar_06_0746,rdk-discrimination,2021.2.3,60.11544570619985,
,,,,,,,,,,,,,,,,,,,,,,,,,,,,108.83248149999417,None,space,6.567128700000467,108.83248149999417,None,sb,2022_Mar_06_0746,rdk-discrimination,2021.2.3,60.11544570619985,
left,left,,,,,0,0,0,5,0.0013031299895374104,1.0013031299895374,116.41604759999609,None,117.6248537000065,None,118.62393800000427,None,122.63736320000316,None,122.63736320000316,None,f,122.63736320000316,None,123.08670290000737,None,0.43071990000316873,,,,,,,sb,2022_Mar_06_0746,rdk-discrimination,2021.2.3,60.11544570619985,
none,left,,,,,0,1,1,48,0.009744029986904934,1.009744029986905,124.56639969999378,None,124.9185892999958,None,125.91762500000186,None,130.43060799999512,None,130.43060799999512,None,j,130.43060799999512,None,130.79682299999695,None,0.3362477999908151,,,,,,,sb,2022_Mar_06_0746,rdk-discrimination,2021.2.3,60.11544570619985,
none,right,,,,,0,2,2,74,0.014590730017516762,1.0145907300175168,132.27237619999505,None,132.62847840000177,None,133.62768010000582,None,138.6400716000062,None,138.6400716000062,None,j,138.6400716000062,None,139.37250860000495,None,0.7057000000058906,,,,,,,sb,2022_Mar_06_0746,rdk-discrimination,2021.2.3,60.11544570619985,
none,left,,,,,0,3,3,52,0.014364729999215342,1.0143647299992153,140.84837490000064,None,140.95462970000517,None,141.9537241999933,None,146.4664988000004,None,146.4664988000004,None,j,146.4664988000004,None,146.89923409999756,None,0.4181665000069188,,,,,,,sb,2022_Mar_06_0746,rdk-discrimination,2021.2.3,60.11544570619985,
none,right,,,,,0,4,4,62,0.013567829999374226,1.0135678299993742,148.37417150000692,None,149.5804511000024,None,150.57951599999797,None,153.99321070000587,None,153.99321070000587,None,j,153.99321070000587,None,154.29281519999495,None,0.28204059999552555,,,,,,,sb,2022_Mar_06_0746,rdk-discrimination,2021.2.3,60.11544570619985,
left,left,,,,,0,5,5,14,0.0134250299888663,1.0134250299888663,155.7706099000061,None,156.9739522000018,None,157.9730053999956,None,162.48588209999434,None,162.48588209999434,None,f,162.48588209999434,None,163.43493440000748,None,0.9196444999979576,,,,,,,sb,2022_Mar_06_0746,rdk-discrimination,2021.2.3,60.11544570619985,
none,left,,,,,0,6,6,43,0.014066529998672195,1.0140665299986722,164.91108740000345,None,165.2666190000018,None,166.26584300000104,None,170.77862979999918,None,170.77862979999918,None,f,170.77862979999918,None,171.67782070000248,None,0.8675415000034263,,,,,,,sb,2022_Mar_06_0746,rdk-discrimination,2021.2.3,60.11544570619985,
none,right,,,,,0,7,7,68,0.013870030001271516,1.0138700300012715,173.15358549999655,None,173.9594029,None,174.95826939999824,None,179.97071540000616,None,179.97071540000616,None,j,179.97071540000616,None,180.30353150000155,None,0.31296650000149384,,,,,,,sb,2022_Mar_06_0746,rdk-discrimination,2021.2.3,60.11544570619985,
none,right,,,,,0,8,8,72,0.014403329987544566,1.0144033299875446,181.77856029999384,None,182.58496579999337,None,183.58405530000164,None,187.59746420000738,None,187.59746420000738,None,j,187.59746420000738,None,188.2633036000043,None,0.6394901000021491,,,,,,,sb,2022_Mar_06_0746,rdk-discrimination,2021.2.3,60.11544570619985,
none,right,,,,,0,9,9,69,0.013088130013784394,1.0130881300137844,189.74021390000416,None,190.54459320000024,None,191.54379919999337,None,196.55641540000215,None,196.55641540000215,None,f,196.55641540000215,None,196.85585320000246,None,0.27560220001032576,,,,,,,sb,2022_Mar_06_0746,rdk-discrimination,2021.2.3,60.11544570619985,
none,right,,,,,0,10,10,70,0.014273429987952113,1.0142734299879521,198.33111490000738,None,198.4379043999943,None,199.43697340000654,None,203.949824299998,None,203.949824299998,None,f,203.949824299998,None,204.68238399999973,None,0.7060162999987369,,,,,,,sb,2022_Mar_06_0746,rdk-discrimination,2021.2.3,60.11544570619985,
none,left,,,,,0,11,11,59,0.014061829991987906,1.014061829991988,206.15880330000073,None,207.36328229999344,None,208.36242340000172,None,212.8754442000063,None,212.8754442000063,None,f,212.8754442000063,None,213.55802460000268,None,0.6646781000017654,,,,,,,sb,2022_Mar_06_0746,rdk-discrimination,2021.2.3,60.11544570619985,
right,right,,,,,0,12,12,18,0.014394829995580949,1.014394829995581,215.03207519999705,None,215.83939259999897,None,216.83847859999514,None,221.3513368999993,None,221.3513368999993,None,j,221.3513368999993,None,221.70086789999914,None,0.3328334000107134,,,,,,,sb,2022_Mar_06_0746,rdk-discrimination,2021.2.3,60.11544570619985,
none,left,,,,,0,13,13,41,0.014302829978987575,1.0143028299789876,223.17643989999488,None,223.28286259999732,None,224.28188409999711,None,228.2952321000048,None,228.2952321000048,None,f,228.2952321000048,None,228.59483000000182,None,0.27427629999874625,,,,,,,sb,2022_Mar_06_0746,rdk-discrimination,2021.2.3,60.11544570619985,
none,right,,,,,0,14,14,60,0.014265029996749945,1.01426502999675,230.07094920000236,None,231.27585089999775,None,232.27484129999357,None,237.2874082000053,None,237.2874082000053,None,f,237.2874082000053,None,237.83666869999433,None,0.522677200002363,,,,,,,sb,2022_Mar_06_0746,rdk-discrimination,2021.2.3,60.11544570619985,
right,right,,,,,0,15,15,17,0.01361382998584304,1.013613829985843,239.3130247999943,None,239.41873360000318,None,240.41796160000376,None,244.9306082999974,None,244.9306082999974,None,j,244.9306082999974,None,245.39671149999776,None,0.44624499999918044,,,,,,,sb,2022_Mar_06_0746,rdk-discrimination,2021.2.3,60.11544570619985,
left,left,,,,,0,16,16,8,0.014278230009949766,1.0142782300099498,246.873508699995,None,247.22849280000082,None,248.22763930000656,None,252.74075379999704,None,252.74075379999704,None,f,252.74075379999704,None,253.17332289999467,None,0.40530779999971855,,,,,,,sb,2022_Mar_06_0746,rdk-discrimination,2021.2.3,60.11544570619985,
right,right,,,,,0,17,17,27,0.014295529996161349,1.0142955299961613,254.64899729999888,None,254.7552391000063,None,255.75439790000382,None,260.76698440000473,None,260.76698440000473,None,j,260.76698440000473,None,261.06661340000574,None,0.2769638000027044,,,,,,,sb,2022_Mar_06_0746,rdk-discrimination,2021.2.3,60.11544570619985,
none,right,,,,,0,18,18,73,0.013755530002526939,1.013755530002527,262.54275969999435,None,262.64853449999646,None,263.6477328000037,None,268.66005010000663,None,268.66005010000663,None,j,268.66005010000663,None,268.9928755000001,None,0.3126429999974789,,,,,,,sb,2022_Mar_06_0746,rdk-discrimination,2021.2.3,60.11544570619985,
left,left,,,,,0,19,19,4,0.014236830014851876,1.0142368300148519,270.4685013999988,None,270.5747712000011,None,271.57410929999605,None,276.5865116000059,None,276.5865116000059,None,f,276.5865116000059,None,276.9526635000075,None,0.3447998999909032,,,,,,,sb,2022_Mar_06_0746,rdk-discrimination,2021.2.3,60.11544570619985,
left,left,,,,,0,20,20,2,0.014550430001690984,1.014550430001691,278.4271182999946,None,278.53438159999496,None,279.5336493000068,None,283.54698660000577,None,283.54698660000577,None,f,283.54698660000577,None,283.8298880000075,None,0.26180579999345355,,,,,,,sb,2022_Mar_06_0746,rdk-discrimination,2021.2.3,60.11544570619985,
none,left,,,,,0,21,21,51,0.014366129995323718,1.0143661299953237,285.30460879999737,None,286.51088410000375,None,287.5098306,None,291.52331720000075,None,291.52331720000075,None,f,291.52331720000075,None,291.873039099999,None,0.3340823000035016,,,,,,,sb,2022_Mar_06_0746,rdk-discrimination,2021.2.3,60.11544570619985,
right,right,,,,,0,22,22,24,0.013962729994091205,1.0139627299940912,293.3489247999969,None,294.1541967999947,None,295.1532600000064,None,299.6662351999985,None,299.6662351999985,None,j,299.6662351999985,None,300.0492916999938,None,0.35316459999012295,,,,,,,sb,2022_Mar_06_0746,rdk-discrimination,2021.2.3,60.11544570619985,
none,left,,,,,0,23,23,40,0.014227730003767647,1.0142277300037676,301.5246010999981,None,301.6308485000045,None,302.6302457999991,None,307.6425029999955,None,307.6425029999955,None,j,307.6425029999955,None,307.95867310000176,None,0.2983421999961138,,,,,,,sb,2022_Mar_06_0746,rdk-discrimination,2021.2.3,60.11544570619985,
right,left,,,,,0,24,24,37,0.014318930014269426,1.0143189300142694,309.43336130000534,None,310.24021950000315,None,311.2389874999935,None,316.2516908999969,None,316.2516908999969,None,j,316.2516908999969,None,316.551306399997,None,0.28029710000555497,,,,,,,sb,2022_Mar_06_0746,rdk-discrimination,2021.2.3,60.11544570619985,
right,right,,,,,0,25,25,23,0.014145330002065748,1.0141453300020657,318.02787259999604,None,318.83261300000595,None,319.8318347000022,None,324.34485730000597,None,324.34485730000597,None,j,324.34485730000597,None,324.6610753999994,None,0.29159039999649394,,,,,,,sb,2022_Mar_06_0746,rdk-discrimination,2021.2.3,60.11544570619985,
none,left,,,,,0,26,26,50,0.01494962998549454,1.0149496299854945,326.1350162000017,None,326.4927331999934,None,327.49187090000487,None,330.9057898000028,None,330.9057898000028,None,j,330.9057898000028,None,331.93787229999725,None,1.006282900008955,,,,,,,sb,2022_Mar_06_0746,rdk-discrimination,2021.2.3,60.11544570619985,
left,right,,,,,0,27,27,32,0.014521830002195202,1.0145218300021952,333.41235149999557,None,334.2192580999981,None,335.2184239000053,None,338.6322194999957,None,338.6322194999957,None,f,338.6322194999957,None,339.26505760000146,None,0.6147877999901539,,,,,,,sb,2022_Mar_06_0746,rdk-discrimination,2021.2.3,60.11544570619985,
right,right,,,,,0,28,28,16,0.014190030007739551,1.0141900300077396,340.7399038000003,None,341.0966262000002,None,342.0953922000044,None,346.10925910000515,None,346.10925910000515,None,f,346.10925910000515,None,346.5087229000055,None,0.3839602000080049,,,,,,,sb,2022_Mar_06_0746,rdk-discrimination,2021.2.3,60.11544570619985,
none,left,,,,,0,29,29,57,0.014560929994331673,1.0145609299943317,347.98341440000513,None,348.78991409999435,None,349.7890878000035,None,353.2030897000077,None,353.2030897000077,None,f,353.2030897000077,None,353.5356984999962,None,0.3165997000032803,,,,,,,sb,2022_Mar_06_0746,rdk-discrimination,2021.2.3,60.11544570619985,
right,left,,,,,0,30,30,36,0.013999829985550605,1.0139998299855506,355.01115639999625,None,355.1176962000027,None,356.116692399999,None,360.6297934000031,None,360.6297934000031,None,j,360.6297934000031,None,360.9794327999989,None,0.3336991999967722,,,,,,,sb,2022_Mar_06_0746,rdk-discrimination,2021.2.3,60.11544570619985,
none,left,,,,,0,31,31,46,0.014149729991913773,1.0141497299919138,362.4547179999936,None,363.6604699000018,None,364.6595059999963,None,369.1723822000058,None,369.1723822000058,None,f,369.1723822000058,None,369.53869630000554,None,0.3495034000079613,,,,,,,sb,2022_Mar_06_0746,rdk-discrimination,2021.2.3,60.11544570619985,
right,right,,,,,0,32,32,28,0.01458943000761792,1.014589430007618,371.01259030000074,None,371.3701570999983,None,372.36960580000596,None,375.78317100000277,None,375.78317100000277,None,j,375.78317100000277,None,376.1659071000031,None,0.35841670000809245,,,,,,,sb,2022_Mar_06_0746,rdk-discrimination,2021.2.3,60.11544570619985,
none,left,,,,,0,33,33,58,0.01455752998299431,1.0145575299829943,377.6421352000034,None,378.84719210000185,None,379.8461926000018,None,383.2602976000053,None,383.2602976000053,None,j,383.2602976000053,None,383.55968510000093,None,0.27370360000350047,,,,,,,sb,2022_Mar_06_0746,rdk-discrimination,2021.2.3,60.11544570619985,
right,right,,,,,0,34,34,19,0.01473622999037616,1.0147362299903762,385.0347003000061,None,386.240716100001,None,387.23973460000707,None,391.7524933999957,None,391.7524933999957,None,j,391.7524933999957,None,392.1188045000017,None,0.34946640000271145,,,,,,,sb,2022_Mar_06_0746,rdk-discrimination,2021.2.3,60.11544570619985,
none,right,,,,,0,35,35,71,0.014249029991333373,1.0142490299913334,393.5928920000006,None,393.95053180000104,None,394.9499410999997,None,399.46262079999724,None,399.46262079999724,None,f,399.46262079999724,None,399.81216600000334,None,0.3308630999963498,,,,,,,sb,2022_Mar_06_0746,rdk-discrimination,2021.2.3,60.11544570619985,
none,right,,,,,0,36,36,61,0.014886529999785125,1.0148865299997851,401.2871510999976,None,401.3937647999992,None,402.39316740000504,None,406.40656119999767,None,406.40656119999767,None,j,406.40656119999767,None,406.92250149999745,None,0.48716910000075586,,,,,,,sb,2022_Mar_06_0746,rdk-discrimination,2021.2.3,60.11544570619985,
left,right,,,,,0,37,37,33,0.014604429990868084,1.014604429990868,408.3983324000001,None,408.75454850000096,None,409.75348840000515,None,413.1673526999948,None,413.1673526999948,None,f,413.1673526999948,None,413.48360979999416,None,0.30047319999721367,,,,,,,sb,2022_Mar_06_0746,rdk-discrimination,2021.2.3,60.11544570619985,
none,right,,,,,0,38,38,79,0.013917130010668188,1.0139171300106682,414.95983449999767,None,415.06551440000476,None,416.0644339999999,None,419.4785441999993,None,419.4785441999993,None,j,419.4785441999993,None,420.01102629999514,None,0.5082958999992115,,,,,,,sb,2022_Mar_06_0746,rdk-discrimination,2021.2.3,60.11544570619985,
right,right,,,,,0,39,39,29,0.014957330015022308,1.0149573300150223,421.48609819999547,None,422.69202859999496,None,423.691184299998,None,427.10502230000566,None,427.10502230000566,None,j,427.10502230000566,None,427.5547765999945,None,0.41936909999640193,,,,,,,sb,2022_Mar_06_0746,rdk-discrimination,2021.2.3,60.11544570619985,
right,right,,,,,0,40,40,21,0.014057330001378432,1.0140573300013784,429.0312303999963,None,430.23581569999806,None,431.2348125999997,None,436.24758799999836,None,436.24758799999836,None,j,436.24758799999836,None,436.5635461000056,None,0.29207290000340436,,,,,,,sb,2022_Mar_06_0746,rdk-discrimination,2021.2.3,60.11544570619985,
right,right,,,,,0,41,41,25,0.013882629995350726,1.0138826299953507,438.0392159000039,None,438.3950552000024,None,439.3940391000069,None,444.406851599997,None,444.406851599997,None,j,444.406851599997,None,444.75624669999524,None,0.3209350999968592,,,,,,,sb,2022_Mar_06_0746,rdk-discrimination,2021.2.3,60.11544570619985,
right,right,,,,,0,42,42,22,0.014258530005463399,1.0142585300054634,446.23111710000376,None,447.4373290000076,None,448.4363009999943,None,453.4488917999988,None,453.4488917999988,None,j,453.4488917999988,None,453.8984649000049,None,0.42805779998889193,,,,,,,sb,2022_Mar_06_0746,rdk-discrimination,2021.2.3,60.11544570619985,
none,right,,,,,0,43,43,64,0.014393229997949675,1.0143932299979497,455.3746362999955,None,455.4801802000002,None,456.47936769999797,None,459.89312470000004,None,459.89312470000004,None,f,459.89312470000004,None,460.5263386000006,None,0.6089611999923363,,,,,,,sb,2022_Mar_06_0746,rdk-discrimination,2021.2.3,60.11544570619985,
none,right,,,,,0,44,44,67,0.01483832998201251,1.0148383299820125,461.99973759999557,None,463.2069671000063,None,464.2059508999955,None,467.61998380000296,None,467.61998380000296,None,j,467.61998380000296,None,468.01942890000646,None,0.37858239999332,,,,,,,sb,2022_Mar_06_0746,rdk-discrimination,2021.2.3,60.11544570619985,
none,right,,,,,0,45,45,66,0.01450503000523895,1.014505030005239,469.49239240000315,None,470.70014020000235,None,471.69923359999666,None,476.212194000007,None,476.212194000007,None,f,476.212194000007,None,476.5950825000036,None,0.35983450000640005,,,,,,,sb,2022_Mar_06_0746,rdk-discrimination,2021.2.3,60.11544570619985,
left,left,,,,,0,46,46,0,0.014604629992390983,1.014604629992391,478.07041729999764,None,478.1770289999986,None,479.1761041999998,None,484.18878880000557,None,484.18878880000557,None,f,484.18878880000557,None,484.688169800007,None,0.472265200005495,,,,,,,sb,2022_Mar_06_0746,rdk-discrimination,2021.2.3,60.11544570619985,
left,left,,,,,0,47,47,6,0.014225430000806227,1.0142254300008062,486.1635926000017,None,487.3694007000013,None,488.3683380000002,None,493.3807259000023,None,493.3807259000023,None,f,493.3807259000023,None,493.83006219999515,None,0.41872529999818653,,,,,,,sb,2022_Mar_06_0746,rdk-discrimination,2021.2.3,60.11544570619985,
right,right,,,,,0,48,48,30,0.014485829990007915,1.014485829990008,495.30630609999935,None,495.412021600001,None,496.4112771000073,None,500.9241902000067,None,500.9241902000067,None,j,500.9241902000067,None,501.27360240000417,None,0.32341480000468437,,,,,,,sb,2022_Mar_06_0746,rdk-discrimination,2021.2.3,60.11544570619985,
left,left,,,,,0,49,49,11,0.014473029994405806,1.0144730299944058,502.7486709999939,None,503.55501260000165,None,504.55411519999325,None,509.06709349999437,None,509.06709349999437,None,f,509.06709349999437,None,509.39988909999374,None,0.3124670999968657,,,,,,,sb,2022_Mar_06_0746,rdk-discrimination,2021.2.3,60.11544570619985,
none,right,,,,,0,50,50,63,0.01494362999801524,1.0149436299980152,510.8735860000015,None,512.0810330999957,None,513.0799628999957,None,517.5930068000016,None,517.5930068000016,None,f,517.5930068000016,None,517.9257693999971,None,0.30581920000258833,,,,,,,sb,2022_Mar_06_0746,rdk-discrimination,2021.2.3,60.11544570619985,
none,left,,,,,0,51,51,42,0.013778230000752956,1.013778230000753,519.4014196000062,None,519.7575369999977,None,520.7565306000033,None,525.7692583000025,None,525.7692583000025,None,j,525.7692583000025,None,526.1188356000057,None,0.33404020000307355,,,,,,,sb,2022_Mar_06_0746,rdk-discrimination,2021.2.3,60.11544570619985,
none,right,,,,,0,52,52,78,0.01501392999489326,1.0150139299948933,527.5919291000027,None,527.9505314999988,None,528.9494475999963,None,533.4622269999963,None,533.4622269999963,None,j,533.4622269999963,None,533.8118336000043,None,0.33355320000555366,,,,,,,sb,2022_Mar_06_0746,rdk-discrimination,2021.2.3,60.11544570619985,
left,left,,,,,0,53,53,9,0.014508530002785847,1.0145085300027858,535.2881148000015,None,536.493226000006,None,537.4921139000071,None,540.9058860000077,None,540.9058860000077,None,f,540.9058860000077,None,541.2722734999988,None,0.340187000008882,,,,,,,sb,2022_Mar_06_0746,rdk-discrimination,2021.2.3,60.11544570619985,
left,right,,,,,0,54,54,34,0.014400230007595383,1.0144002300075954,542.7480887999991,None,543.9530457999936,None,544.9520739,None,549.9646275999985,None,549.9646275999985,None,f,549.9646275999985,None,550.2976156999939,None,0.3047328000102425,,,,,,,sb,2022_Mar_06_0746,rdk-discrimination,2021.2.3,60.11544570619985,
right,left,,,,,0,55,55,39,0.013911729998653755,1.0139117299986538,551.7726469000045,None,551.8793757999956,None,552.8786971999943,None,557.8911130000051,None,557.8911130000051,None,j,557.8911130000051,None,558.3074171000044,None,0.3840438000042923,,,,,,,sb,2022_Mar_06_0746,rdk-discrimination,2021.2.3,60.11544570619985,
left,left,,,,,0,56,56,3,0.01405602999147959,1.0140560299914796,559.7835541999957,None,559.8893489000038,None,560.8882688000012,None,564.3022847999964,None,564.3022847999964,None,f,564.3022847999964,None,564.7682521999959,None,0.44882930000312626,,,,,,,sb,2022_Mar_06_0746,rdk-discrimination,2021.2.3,60.11544570619985,
none,left,,,,,0,57,57,45,0.014271029984229244,1.0142710299842292,566.2427423000045,None,567.0496929000074,None,568.0488160999957,None,573.0610870999953,None,573.0610870999953,None,j,573.0610870999953,None,573.4108552999969,None,0.32779280000249855,,,,,,,sb,2022_Mar_06_0746,rdk-discrimination,2021.2.3,60.11544570619985,
left,left,,,,,0,58,58,15,0.01415012999495957,1.0141501299949596,574.8863915999973,None,576.0916950999963,None,577.0907245999988,None,580.5049396999966,None,580.5049396999966,None,f,580.5049396999966,None,580.8877437000046,None,0.3573755999968853,,,,,,,sb,2022_Mar_06_0746,rdk-discrimination,2021.2.3,60.11544570619985,
none,right,,,,,0,59,59,75,0.01409242999216076,1.0140924299921608,582.3624375000072,None,582.4692787999957,None,583.4685042000056,None,587.9815189999936,None,587.9815189999936,None,f,587.9815189999936,None,588.7639458000049,None,0.754842499998631,,,,,,,sb,2022_Mar_06_0746,rdk-discrimination,2021.2.3,60.11544570619985,
none,right,,,,,0,60,60,77,0.014491830006591044,1.014491830006591,590.2390384000028,None,591.045318000004,None,592.0446820999932,None,595.458324399995,None,595.458324399995,None,j,595.458324399995,None,595.8080616999941,None,0.3215289999934612,,,,,,,sb,2022_Mar_06_0746,rdk-discrimination,2021.2.3,60.11544570619985,
left,left,,,,,0,61,61,10,0.013827530012349598,1.0138275300123496,597.2837392000074,None,597.390117899995,None,598.3890344999963,None,603.4016864000005,None,603.4016864000005,None,f,603.4016864000005,None,604.5503025999933,None,1.1241978000034578,,,,,,,sb,2022_Mar_06_0746,rdk-discrimination,2021.2.3,60.11544570619985,
none,right,,,,,0,62,62,65,0.014722129999427125,1.0147221299994271,606.0254147999949,None,606.8319842000055,None,607.8309066999936,None,611.8442047999997,None,611.8442047999997,None,f,611.8442047999997,None,612.1768747000024,None,0.30949990000226535,,,,,,,sb,2022_Mar_06_0746,rdk-discrimination,2021.2.3,60.11544570619985,
none,right,,,,,0,63,63,76,0.014570930012268946,1.014570930012269,613.6504758999945,None,614.0087581999978,None,615.0080089999974,None,620.0205330000026,None,620.0205330000026,None,f,620.0205330000026,None,620.5029964999994,None,0.459808300001896,,,,,,,sb,2022_Mar_06_0746,rdk-discrimination,2021.2.3,60.11544570619985,
none,left,,,,,0,64,64,55,0.013591330003691837,1.0135913300036918,621.9792572000006,None,622.7844520000071,None,623.7834412999946,None,627.1973319999961,None,627.1973319999961,None,j,627.1973319999961,None,627.7963741999993,None,0.5727430999977514,,,,,,,sb,2022_Mar_06_0746,rdk-discrimination,2021.2.3,60.11544570619985,
right,right,,,,,0,65,65,31,0.014201929996488616,1.0142019299964886,629.2715428999945,None,630.4777816999995,None,631.4768125999981,None,634.8905614999967,None,634.8905614999967,None,j,634.8905614999967,None,635.3402357000014,None,0.4222917999868514,,,,,,,sb,2022_Mar_06_0746,rdk-discrimination,2021.2.3,60.11544570619985,
none,left,,,,,0,66,66,47,0.013784529990516603,1.0137845299905166,636.8157772999984,None,637.621951299996,None,638.6205696999968,None,643.133703200001,None,643.133703200001,None,j,643.133703200001,None,643.5829142000002,None,0.42711570000392385,,,,,,,sb,2022_Mar_06_0746,rdk-discrimination,2021.2.3,60.11544570619985,
right,right,,,,,0,67,67,26,0.01417012998717837,1.0141701299871784,645.0601752999937,None,645.8641534000053,None,646.8632390999992,None,650.2771211000072,None,650.2771211000072,None,j,650.2771211000072,None,650.6933189999982,None,0.3916122000082396,,,,,,,sb,2022_Mar_06_0746,rdk-discrimination,2021.2.3,60.11544570619985,
left,left,,,,,0,68,68,13,0.014642729991464876,1.0146427299914649,652.1686396000005,None,652.9746311000054,None,653.9740586999978,None,658.9864036000072,None,658.9864036000072,None,f,658.9864036000072,None,659.4691022000043,None,0.459960799998953,,,,,,,sb,2022_Mar_06_0746,rdk-discrimination,2021.2.3,60.11544570619985,
left,left,,,,,0,69,69,1,0.014485729989246465,1.0144857299892465,660.943697499999,None,661.0510668000061,None,662.050112900004,None,667.0626328999933,None,667.0626328999933,None,f,667.0626328999933,None,667.4954810000054,None,0.41331560000253376,,,,,,,sb,2022_Mar_06_0746,rdk-discrimination,2021.2.3,60.11544570619985,
right,right,,,,,0,70,70,20,0.01473322999663651,1.0147332299966365,668.9706147999968,None,669.0775817999966,None,670.0763777999964,None,674.5893197999976,None,674.5893197999976,None,j,674.5893197999976,None,674.9722719999991,None,0.3523669999995036,,,,,,,sb,2022_Mar_06_0746,rdk-discrimination,2021.2.3,60.11544570619985,
left,left,,,,,0,71,71,7,0.014612830011174083,1.014612830011174,676.4466657000012,None,677.2537013999972,None,678.252493299995,None,682.7659110999957,None,682.7659110999957,None,f,682.7659110999957,None,683.0985106000007,None,0.31122939998749644,,,,,,,sb,2022_Mar_06_0746,rdk-discrimination,2021.2.3,60.11544570619985,
right,left,,,,,0,72,72,38,0.014885529992170632,1.0148855299921706,684.5732486000052,None,684.6802363000024,None,685.6795720999944,None,689.0934811000043,None,689.0934811000043,None,j,689.0934811000043,None,689.609533099996,None,0.49589069999638014,,,,,,,sb,2022_Mar_06_0746,rdk-discrimination,2021.2.3,60.11544570619985,
none,left,,,,,0,73,73,53,0.01432282998575829,1.0143228299857583,691.0853487999993,None,691.1914690999984,None,692.1903985999961,None,695.6045404000033,None,695.6045404000033,None,f,695.6045404000033,None,696.0870032999956,None,0.46119309999630786,,,,,,,sb,2022_Mar_06_0746,rdk-discrimination,2021.2.3,60.11544570619985,
left,left,,,,,0,74,74,12,0.014630429985118099,1.014630429985118,697.5620386999944,None,697.6690253999986,None,698.6681880999968,None,702.081929699998,None,702.081929699998,None,f,702.081929699998,None,702.6646141999954,None,0.5568110000021989,,,,,,,sb,2022_Mar_06_0746,rdk-discrimination,2021.2.3,60.11544570619985,
none,left,,,,,0,75,75,44,0.013368529980652966,1.013368529980653,704.141028900005,None,704.9461587999976,None,705.9452196000057,None,709.9584113000019,None,709.9584113000019,None,f,709.9584113000019,None,710.3079463000031,None,0.322174000000814,,,,,,,sb,2022_Mar_06_0746,rdk-discrimination,2021.2.3,60.11544570619985,
none,left,,,,,0,76,76,54,0.013327830005437136,1.0133278300054371,711.7848621000012,None,712.9890116000024,None,713.9880221000058,None,718.0014756000019,None,718.0014756000019,None,j,718.0014756000019,None,718.3013386999955,None,0.278196699990076,,,,,,,sb,2022_Mar_06_0746,rdk-discrimination,2021.2.3,60.11544570619985,
none,left,,,,,0,77,77,49,0.013582729996414855,1.0135827299964149,719.7763763999974,None,720.9820577000064,None,721.9811687000038,None,726.4940328999946,None,726.4940328999946,None,j,726.4940328999946,None,726.8437795000063,None,0.3219865999999456,,,,,,,sb,2022_Mar_06_0746,rdk-discrimination,2021.2.3,60.11544570619985,
none,left,,,,,0,78,78,56,0.014551929998560809,1.0145519299985608,728.3173521999997,None,728.4257058000076,None,729.4247858000017,None,732.8387688000075,None,732.8387688000075,None,j,732.8387688000075,None,733.2216459000047,None,0.3541858999960823,,,,,,,sb,2022_Mar_06_0746,rdk-discrimination,2021.2.3,60.11544570619985,
left,right,,,,,0,79,79,35,0.014643329996033572,1.0146433299960336,734.6946522000071,None,734.8035587000049,None,735.8023469000036,None,739.815806300001,None,739.815806300001,None,f,739.815806300001,None,740.1819446000009,None,0.34905479999724776,,,,,,,sb,2022_Mar_06_0746,rdk-discrimination,2021.2.3,60.11544570619985,
none,left,,,,,1,0,80,58,0.014067529991734773,1.0140675299917348,741.6569925999938,None,742.4633036000014,None,743.4624373999977,None,747.9752814999956,None,747.9752814999956,None,f,747.9752814999956,None,748.2749820000026,None,0.2698257000010926,,,,,,,sb,2022_Mar_06_0746,rdk-discrimination,2021.2.3,60.11544570619985,
right,right,,,,,1,1,81,25,0.013650730004883371,1.0136507300048834,749.7508864999982,None,749.8569990999968,None,750.8560380999988,None,755.3689894999989,None,755.3689894999989,None,j,755.3689894999989,None,755.8017927000037,None,0.41134380000585224,,,,,,,sb,2022_Mar_06_0746,rdk-discrimination,2021.2.3,60.11544570619985,
left,left,,,,,1,2,82,8,0.014262030003010295,1.0142620300030103,757.2764039000031,None,757.6334972000041,None,758.6326905000024,None,763.6453048999974,None,763.6453048999974,None,f,763.6453048999974,None,763.9612525999983,None,0.30044510000152513,,,,,,,sb,2022_Mar_06_0746,rdk-discrimination,2021.2.3,60.11544570619985,
left,left,,,,,1,3,83,11,0.01497832998575177,1.0149783299857518,765.4351424000051,None,766.6424913999945,None,767.6413983999955,None,771.0553198999987,None,771.0553198999987,None,f,771.0553198999987,None,771.3883253999957,None,0.31239219999406487,,,,,,,sb,2022_Mar_06_0746,rdk-discrimination,2021.2.3,60.11544570619985,
none,right,,,,,1,4,84,69,0.014445129985688254,1.0144451299856883,772.8626741000044,None,773.2201895000035,None,774.2192233999958,None,779.2314843000058,None,779.2314843000058,None,j,779.2314843000058,None,779.5979241000023,None,0.3483304999972461,,,,,,,sb,2022_Mar_06_0746,rdk-discrimination,2021.2.3,60.11544570619985,
none,left,,,,,1,5,85,48,0.014180030018906109,1.014180030018906,781.0731398000062,None,781.1795725999982,None,782.1788380000071,None,786.6917815000052,None,786.6917815000052,None,j,786.6917815000052,None,787.1409238000051,None,0.421578599998611,,,,,,,sb,2022_Mar_06_0746,rdk-discrimination,2021.2.3,60.11544570619985,
none,right,,,,,1,6,86,79,0.013874929994926788,1.0138749299949268,788.6172878999932,None,788.723490999997,None,789.7220018999942,None,793.7355134999962,None,793.7355134999962,None,f,793.7355134999962,None,794.3348050000059,None,0.5831520999927307,,,,,,,sb,2022_Mar_06_0746,rdk-discrimination,2021.2.3,60.11544570619985,
left,right,,,,,1,7,87,34,0.014416630001505837,1.0144166300015058,795.8100085000042,None,796.6161696000054,None,797.6152168999979,None,802.1281921000045,None,802.1281921000045,None,f,802.1281921000045,None,802.4777778999996,None,0.33201919999555685,,,,,,,sb,2022_Mar_06_0746,rdk-discrimination,2021.2.3,60.11544570619985,
left,left,,,,,1,8,88,14,0.014283330005127937,1.014283330005128,803.9536297000013,None,805.1587848000054,None,806.1577555999975,None,811.1706024000014,None,811.1706024000014,None,f,811.1706024000014,None,811.5199846000032,None,0.3238641999923857,,,,,,,sb,2022_Mar_06_0746,rdk-discrimination,2021.2.3,60.11544570619985,
none,left,,,,,1,9,89,50,0.014431529998546466,1.0144315299985465,812.995755099997,None,813.1020040000003,None,814.1007250999974,None,817.5149713999999,None,817.5149713999999,None,f,817.5149713999999,None,817.9975609999965,None,0.46066029999929015,,,,,,,sb,2022_Mar_06_0746,rdk-discrimination,2021.2.3,60.11544570619985,
none,left,,,,,1,10,90,44,0.014593130006687716,1.0145931300066877,819.4723524000001,None,820.6786132999987,None,821.6779118999984,None,825.091430600005,None,825.091430600005,None,f,825.091430600005,None,825.4411218000023,None,0.32063539999944624,,,,,,,sb,2022_Mar_06_0746,rdk-discrimination,2021.2.3,60.11544570619985,
left,right,,,,,1,11,91,35,0.013787529998808168,1.0137875299988082,826.9161367000052,None,827.2726230999979,None,828.2717879999982,None,832.2855908000056,None,832.2855908000056,None,f,832.2855908000056,None,832.7511909000023,None,0.43587709999701474,,,,,,,sb,2022_Mar_06_0746,rdk-discrimination,2021.2.3,60.11544570619985,
left,left,,,,,1,12,92,7,0.014376129998709075,1.014376129998709,834.2257468000025,None,834.5830897999986,None,835.5821434999962,None,839.595465499995,None,839.595465499995,None,f,839.595465499995,None,840.0615591999958,None,0.4396763999975519,,,,,,,sb,2022_Mar_06_0746,rdk-discrimination,2021.2.3,60.11544570619985,
left,left,,,,,1,13,93,2,0.01418422999267932,1.0141842299926793,841.5370666999952,None,842.7428497000074,None,843.7416653999971,None,848.7542155999981,None,848.7542155999981,None,f,848.7542155999981,None,849.1038569999946,None,0.3196096000028774,,,,,,,sb,2022_Mar_06_0746,rdk-discrimination,2021.2.3,60.11544570619985,
left,left,,,,,1,14,94,3,0.014362529982463457,1.0143625299824635,850.5771028000017,None,850.9357496000011,None,851.9348901000048,None,855.9478417000064,None,855.9478417000064,None,f,855.9478417000064,None,856.2309722000064,None,0.26146150000568014,,,,,,,sb,2022_Mar_06_0746,rdk-discrimination,2021.2.3,60.11544570619985,
none,left,,,,,1,15,95,59,0.013772630016319454,1.0137726300163195,857.7070148000057,None,858.0627233999985,None,859.061838499998,None,863.0751237999939,None,863.0751237999939,None,j,863.0751237999939,None,863.4246915999975,None,0.32424400000309106,,,,,,,sb,2022_Mar_06_0746,rdk-discrimination,2021.2.3,60.11544570619985,
left,left,,,,,1,16,96,10,0.013901429992984049,1.013901429992984,864.8994455000065,None,865.7062817999977,None,866.7049179000023,None,871.717808500005,None,871.717808500005,None,f,871.717808500005,None,872.0172928999964,None,0.269757700007176,,,,,,,sb,2022_Mar_06_0746,rdk-discrimination,2021.2.3,60.11544570619985,
none,left,,,,,1,17,97,52,0.014174129988532513,1.0141741299885325,873.4923570999963,None,873.8487497000024,None,874.847961499996,None,878.8614906000003,None,878.8614906000003,None,f,878.8614906000003,None,879.2608489999984,None,0.38053920000675134,,,,,,,sb,2022_Mar_06_0746,rdk-discrimination,2021.2.3,60.11544570619985,
right,right,,,,,1,18,98,31,0.014555129979271442,1.0145551299792714,880.7353488999943,None,880.8431098000001,None,881.8420532000018,None,886.8542276999942,None,886.8542276999942,None,j,886.8542276999942,None,887.2371214000013,None,0.3506879000051413,,,,,,,sb,2022_Mar_06_0746,rdk-discrimination,2021.2.3,60.11544570619985,
right,left,,,,,1,19,99,38,0.014581030001863837,1.0145810300018638,888.712010999996,None,889.5186626000068,None,890.5175564999954,None,893.9314920000033,None,893.9314920000033,None,j,893.9314920000033,None,894.2642571000033,None,0.30779900000197813,,,,,,,sb,2022_Mar_06_0746,rdk-discrimination,2021.2.3,60.11544570619985,
none,right,,,,,1,20,100,78,0.014443330015637912,1.014443330015638,895.7398312000005,None,896.5456814000063,None,897.5449974000076,None,900.9589897999977,None,900.9589897999977,None,j,900.9589897999977,None,901.2752254999941,None,0.29648760000418406,,,,,,,sb,2022_Mar_06_0746,rdk-discrimination,2021.2.3,60.11544570619985,
left,left,,,,,1,21,101,4,0.01464652999129612,1.0146465299912961,902.7492709999933,None,902.8568704000063,None,903.8563080000022,None,907.8695310000039,None,907.8695310000039,None,f,907.8695310000039,None,908.2689615999989,None,0.3726345999893965,,,,,,,sb,2022_Mar_06_0746,rdk-discrimination,2021.2.3,60.11544570619985,
right,right,,,,,1,22,102,16,0.01489532999403309,1.014895329994033,909.7443042999948,None,910.1007186000061,None,911.0995585000055,None,916.1124801999977,None,916.1124801999977,None,j,916.1124801999977,None,916.5615662000055,None,0.4237734999915119,,,,,,,sb,2022_Mar_06_0746,rdk-discrimination,2021.2.3,60.11544570619985,
right,right,,,,,1,23,103,23,0.014132729993434623,1.0141327299934346,918.0366241000011,None,918.3931788000045,None,919.3922754999949,None,923.9052209000074,None,923.9052209000074,None,f,923.9052209000074,None,924.2219666000019,None,0.29677539999829605,,,,,,,sb,2022_Mar_06_0746,rdk-discrimination,2021.2.3,60.11544570619985,
none,left,,,,,1,24,104,51,0.014358629981870763,1.0143586299818708,925.6955968999973,None,926.5030406000005,None,927.5022643999982,None,931.5155126000027,None,931.5155126000027,None,j,931.5155126000027,None,931.8815844000055,None,0.3349374999961583,,,,,,,sb,2022_Mar_06_0746,rdk-discrimination,2021.2.3,60.11544570619985,
none,right,,,,,1,25,105,75,0.014405229972908273,1.0144052299729083,933.3557085000066,None,933.4636261999985,None,934.4627814999985,None,939.4749766000023,None,939.4749766000023,None,f,939.4749766000023,None,939.824817700006,None,0.32856619999802206,,,,,,,sb,2022_Mar_06_0746,rdk-discrimination,2021.2.3,60.11544570619985,
right,right,,,,,1,26,106,29,0.014142129992251284,1.0141421299922513,941.3006155000039,None,941.6565378999949,None,942.6554321000003,None,947.1682918000006,None,947.1682918000006,None,j,947.1682918000006,None,947.5181172000011,None,0.319724100001622,,,,,,,sb,2022_Mar_06_0746,rdk-discrimination,2021.2.3,60.11544570619985,
left,left,,,,,1,27,107,1,0.01418053000816144,1.0141805300081614,948.9933085999946,None,949.7993266999983,None,950.7983876000071,None,955.311363700006,None,955.311363700006,None,f,955.311363700006,None,955.6440958000021,None,0.30610250000609085,,,,,,,sb,2022_Mar_06_0746,rdk-discrimination,2021.2.3,60.11544570619985,
left,left,,,,,1,28,108,5,0.01402813001186587,1.0140281300118659,957.1196404000075,None,957.4797244999936,None,958.4751164000045,None,963.4874236000032,None,963.4874236000032,None,f,963.4874236000032,None,963.7704702000046,None,0.2647131999983685,,,,,,,sb,2022_Mar_06_0746,rdk-discrimination,2021.2.3,60.11544570619985,
left,left,,,,,1,29,109,9,0.014000130002386868,1.0140001300023869,965.2466879999993,None,966.0517809000012,None,967.0508950000076,None,970.4646622,None,970.4646622,None,f,970.4646622,None,970.8475184999988,None,0.35800940000626724,,,,,,,sb,2022_Mar_06_0746,rdk-discrimination,2021.2.3,60.11544570619985,
none,right,,,,,1,30,110,60,0.014180329977534711,1.0141803299775347,972.3223555000004,None,972.6795780999964,None,973.6786750000028,None,977.0924611999944,None,977.0924611999944,None,f,977.0924611999944,None,977.4420837000071,None,0.3250237000029301,,,,,,,sb,2022_Mar_06_0746,rdk-discrimination,2021.2.3,60.11544570619985,
left,right,,,,,1,31,111,32,0.01405082999553997,1.01405082999554,978.9180804000061,None,979.0238244000066,None,980.0231246000039,None,984.5359729000047,None,984.5359729000047,None,j,984.5359729000047,None,984.8356124999991,None,0.2771229000063613,,,,,,,sb,2022_Mar_06_0746,rdk-discrimination,2021.2.3,60.11544570619985,
none,right,,,,,1,32,112,77,0.014663230002042837,1.0146632300020428,986.3106155999994,None,987.1167061000015,None,988.1158684999973,None,993.1284561000066,None,993.1284561000066,None,j,993.1284561000066,None,993.5278112999949,None,0.36975369999709073,,,,,,,sb,2022_Mar_06_0746,rdk-discrimination,2021.2.3,60.11544570619985,
none,left,,,,,1,33,113,46,0.01472422998631373,1.0147242299863137,995.0024531999952,None,996.2087101999932,None,997.2078928999981,None,1002.2203800999996,None,1002.2203800999996,None,f,1002.2203800999996,None,1002.6534460999974,None,0.414926799989189,,,,,,,sb,2022_Mar_06_0746,rdk-discrimination,2021.2.3,60.11544570619985,
none,left,,,,,1,34,114,47,0.014024830001289956,1.01402483000129,1004.1290235000051,None,1004.2354049999994,None,1005.2342792999989,None,1009.7475719000067,None,1009.7475719000067,None,j,1009.7475719000067,None,1010.3132212000055,None,0.5398565000068629,,,,,,,sb,2022_Mar_06_0746,rdk-discrimination,2021.2.3,60.11544570619985,
left,left,,,,,1,35,115,13,0.014312230006908067,1.014312230006908,1011.7898520000017,None,1012.9942491999973,None,1013.9932560000016,None,1018.0067316000059,None,1018.0067316000059,None,f,1018.0067316000059,None,1018.4061946000002,None,0.38012060000619385,,,,,,,sb,2022_Mar_06_0746,rdk-discrimination,2021.2.3,60.11544570619985,
left,left,,,,,1,36,116,0,0.014000129987834953,1.014000129987835,1019.8820223999937,None,1019.9880751000019,None,1020.9872440000036,None,1025.999916700006,None,1025.999916700006,None,f,1025.999916700006,None,1026.3161300000065,None,0.3009079000039492,,,,,,,sb,2022_Mar_06_0746,rdk-discrimination,2021.2.3,60.11544570619985,
left,left,,,,,1,37,117,12,0.014404430010472424,1.0144044300104724,1027.790995000003,None,1028.147982800001,None,1029.1468758999981,None,1033.1600561999949,None,1033.1600561999949,None,f,1033.1600561999949,None,1033.5094796000049,None,0.3186740999954054,,,,,,,sb,2022_Mar_06_0746,rdk-discrimination,2021.2.3,60.11544570619985,
none,left,,,,,1,38,118,49,0.014272730011725798,1.0142727300117258,1034.985801600007,None,1035.341388300003,None,1036.3404098000028,None,1041.352952000001,None,1041.352952000001,None,f,1041.352952000001,None,1041.719299400007,None,0.3466496000037296,,,,,,,sb,2022_Mar_06_0746,rdk-discrimination,2021.2.3,60.11544570619985,
right,right,,,,,1,39,119,24,0.014379529995494522,1.0143795299954945,1043.1934305000032,None,1043.3012280999974,None,1044.3001559999975,None,1049.312802200002,None,1049.312802200002,None,j,1049.312802200002,None,1050.5949383999978,None,1.253331400002935,,,,,,,sb,2022_Mar_06_0746,rdk-discrimination,2021.2.3,60.11544570619985,
right,right,,,,,1,40,120,20,0.014254930007155053,1.014254930007155,1052.0705104999943,None,1053.2758979000064,None,1054.274968400001,None,1058.7878706000047,None,1058.7878706000047,None,j,1058.7878706000047,None,1059.2208752000006,None,0.40765370000735857,,,,,,,sb,2022_Mar_06_0746,rdk-discrimination,2021.2.3,60.11544570619985,
none,left,,,,,1,41,121,42,0.014392029988812283,1.0143920299888123,1060.6952882000041,None,1061.0522952000028,None,1062.0515270000033,None,1066.0647144999966,None,1066.0647144999966,None,j,1066.0647144999966,None,1066.514319599999,None,0.4304135000129463,,,,,,,sb,2022_Mar_06_0746,rdk-discrimination,2021.2.3,60.11544570619985,
none,right,,,,,1,42,122,76,0.014538729985360987,1.014538729985361,1067.988499500003,None,1068.7957166999986,None,1069.7947303999972,None,1074.3075124000025,None,1074.3075124000025,None,f,1074.3075124000025,None,1074.6238310000044,None,0.28901110000151675,,,,,,,sb,2022_Mar_06_0746,rdk-discrimination,2021.2.3,60.11544570619985,
none,left,,,,,1,43,123,43,0.015003629989223555,1.0150036299892236,1076.0982035000052,None,1077.3049646,None,1078.3039500000014,None,1081.7177628000063,None,1081.7177628000063,None,j,1081.7177628000063,None,1082.1007932000066,None,0.3639629999961471,,,,,,,sb,2022_Mar_06_0746,rdk-discrimination,2021.2.3,60.11544570619985,
right,left,,,,,1,44,124,37,0.013908930006437004,1.013908930006437,1083.5765382999962,None,1083.9323799999984,None,1084.9318071000016,None,1088.3453922000044,None,1088.3453922000044,None,j,1088.3453922000044,None,1088.7783391999983,None,0.40881680000165943,,,,,,,sb,2022_Mar_06_0746,rdk-discrimination,2021.2.3,60.11544570619985,
none,left,,,,,1,45,125,57,0.01399312999274116,1.0139931299927412,1090.2545479999972,None,1090.6099921999994,None,1091.6088553000009,None,1096.1220752999943,None,1096.1220752999943,None,f,1096.1220752999943,None,1096.5046660999942,None,0.36589939999976195,,,,,,,sb,2022_Mar_06_0746,rdk-discrimination,2021.2.3,60.11544570619985,
right,right,,,,,1,46,126,21,0.014173829986248165,1.0141738299862482,1097.980417400002,None,1098.7860636999976,None,1099.785315999994,None,1104.7977250999975,None,1104.7977250999975,None,j,1104.7977250999975,None,1105.097332499994,None,0.27302019999478944,,,,,,,sb,2022_Mar_06_0746,rdk-discrimination,2021.2.3,60.11544570619985,
none,right,,,,,1,47,127,74,0.014287430007243529,1.0142874300072435,1106.5733471999993,None,1106.9289819999976,None,1107.9282456999936,None,1111.941768699995,None,1111.941768699995,None,j,1111.941768699995,None,1112.4908167999965,None,0.5202094999986002,,,,,,,sb,2022_Mar_06_0746,rdk-discrimination,2021.2.3,60.11544570619985,
none,right,,,,,1,48,128,67,0.014669329990283586,1.0146693299902836,1113.9651999000052,None,1114.772442600006,None,1115.7714935999975,None,1119.1853629999969,None,1119.1853629999969,None,f,1119.1853629999969,None,1119.4846639000025,None,0.2822101999918232,,,,,,,sb,2022_Mar_06_0746,rdk-discrimination,2021.2.3,60.11544570619985,
left,right,,,,,1,49,129,33,0.014909830002579838,1.0149098300025798,1120.9587524999952,None,1122.1658902000054,None,1123.1649842000043,None,1126.5786529000034,None,1126.5786529000034,None,f,1126.5786529000034,None,1127.0281299000053,None,0.43134009999630507,,,,,,,sb,2022_Mar_06_0746,rdk-discrimination,2021.2.3,60.11544570619985,
none,left,,,,,1,50,130,45,0.014112129996647127,1.0141121299966471,1128.502557800006,None,1129.7090558000054,None,1130.7084046999953,None,1134.7216334999976,None,1134.7216334999976,None,f,1134.7216334999976,None,1135.0380794999946,None,0.2859788999921875,,,,,,,sb,2022_Mar_06_0746,rdk-discrimination,2021.2.3,60.11544570619985,
none,right,,,,,1,51,131,65,0.014077030005864799,1.0140770300058648,1136.5134360999946,None,1137.3193446000078,None,1138.318430600004,None,1142.3314681000047,None,1142.3314681000047,None,f,1142.3314681000047,None,1142.6813961000007,None,0.3245515000016894,,,,,,,sb,2022_Mar_06_0746,rdk-discrimination,2021.2.3,60.11544570619985,
right,left,,,,,1,52,132,39,0.014100230007898062,1.014100230007898,1144.1565318000066,None,1145.3624025000026,None,1146.3611686000077,None,1149.7752578999934,None,1149.7752578999934,None,j,1149.7752578999934,None,1150.1079313999944,None,0.3084326999960467,,,,,,,sb,2022_Mar_06_0746,rdk-discrimination,2021.2.3,60.11544570619985,
none,right,,,,,1,53,133,63,0.014282429998274893,1.014282429998275,1151.5829518999963,None,1152.789078700007,None,1153.7879493000073,None,1157.8016208000045,None,1157.8016208000045,None,f,1157.8016208000045,None,1159.0338476000034,None,1.209130199989886,,,,,,,sb,2022_Mar_06_0746,rdk-discrimination,2021.2.3,60.11544570619985,
right,right,,,,,1,54,134,19,0.014376829989487305,1.0143768299894873,1160.5093504999968,None,1160.8653396000009,None,1161.8643901000032,None,1166.3774405000004,None,1166.3774405000004,None,j,1166.3774405000004,None,1166.7770124999952,None,0.383397799989325,,,,,,,sb,2022_Mar_06_0746,rdk-discrimination,2021.2.3,60.11544570619985,
right,right,,,,,1,55,135,27,0.014269029983552173,1.0142690299835522,1168.2524896999967,None,1168.608719099997,None,1169.6078173999995,None,1174.620429100003,None,1174.620429100003,None,j,1174.620429100003,None,1174.9866872999992,None,0.3483855999947991,,,,,,,sb,2022_Mar_06_0746,rdk-discrimination,2021.2.3,60.11544570619985,
none,right,,,,,1,56,136,61,0.014387429997441359,1.0143874299974414,1176.4614231000014,None,1177.2677816000069,None,1178.266821600002,None,1181.6806077999936,None,1181.6806077999936,None,j,1181.6806077999936,None,1182.030382099998,None,0.32766070000070613,,,,,,,sb,2022_Mar_06_0746,rdk-discrimination,2021.2.3,60.11544570619985,
none,right,,,,,1,57,137,64,0.013483629998518154,1.0134836299985182,1183.506304399998,None,1183.6120033000043,None,1184.6111979999987,None,1189.623983700003,None,1189.623983700003,None,f,1189.623983700003,None,1189.9068144000048,None,0.26209940000262577,,,,,,,sb,2022_Mar_06_0746,rdk-discrimination,2021.2.3,60.11544570619985,
left,left,,,,,1,58,138,6,0.013926829982665367,1.0139268299826654,1191.3824546999967,None,1191.4884762000002,None,1192.4876365999953,None,1197.500209699996,None,1197.500209699996,None,f,1197.500209699996,None,1197.7666526999965,None,0.2465529999899445,,,,,,,sb,2022_Mar_06_0746,rdk-discrimination,2021.2.3,60.11544570619985,
none,right,,,,,1,59,139,66,0.01448583000455983,1.0144858300045598,1199.2396564999945,None,1200.0479843000066,None,1201.0472791000066,None,1206.059416300006,None,1206.059416300006,None,f,1206.059416300006,None,1206.4089940999984,None,0.3304857000039192,,,,,,,sb,2022_Mar_06_0746,rdk-discrimination,2021.2.3,60.11544570619985,
none,left,,,,,1,60,140,54,0.014419330007513054,1.014419330007513,1207.8848544000066,None,1208.6901983999996,None,1209.689328499997,None,1214.202386200006,None,1214.202386200006,None,j,1214.202386200006,None,1214.5018947000062,None,0.2712039000034565,,,,,,,sb,2022_Mar_06_0746,rdk-discrimination,2021.2.3,60.11544570619985,
none,left,,,,,1,61,141,55,0.013639929980854504,1.0136399299808545,1215.9781674999977,None,1216.0839687999978,None,1217.0828540999937,None,1221.0963670000056,None,1221.0963670000056,None,j,1221.0963670000056,None,1221.4127841000009,None,0.2857640000001993,,,,,,,sb,2022_Mar_06_0746,rdk-discrimination,2021.2.3,60.11544570619985,
right,right,,,,,1,62,142,28,0.014101730004767887,1.0141017300047679,1222.888648799999,None,1223.6938446999993,None,1224.6930848000047,None,1229.7056155000028,None,1229.7056155000028,None,j,1229.7056155000028,None,1229.9716915000026,None,0.23726429999805987,,,,,,,sb,2022_Mar_06_0746,rdk-discrimination,2021.2.3,60.11544570619985,
right,left,,,,,1,63,143,36,0.014253229994210415,1.0142532299942104,1231.4471396000008,None,1231.5535519999976,None,1232.5528596000077,None,1236.5660102999973,None,1236.5660102999973,None,j,1236.5660102999973,None,1237.0324228999962,None,0.4502591000054963,,,,,,,sb,2022_Mar_06_0746,rdk-discrimination,2021.2.3,60.11544570619985,
none,right,,,,,1,64,144,72,0.013476230000378564,1.0134762300003786,1238.5078470000008,None,1238.6140007000067,None,1239.6131984999956,None,1243.0270791999938,None,1243.0270791999938,None,j,1243.0270791999938,None,1243.3267301000014,None,0.27250809999532066,,,,,,,sb,2022_Mar_06_0746,rdk-discrimination,2021.2.3,60.11544570619985,
none,right,,,,,1,65,145,62,0.013806629998725839,1.0138066299987258,1244.802328100006,None,1246.007811699994,None,1247.0067520000011,None,1250.4210277999955,None,1250.4210277999955,None,f,1250.4210277999955,None,1250.7038216000074,None,0.25205159999313764,,,,,,,sb,2022_Mar_06_0746,rdk-discrimination,2021.2.3,60.11544570619985,
right,right,,,,,1,66,146,22,0.014759329991647974,1.014759329991648,1252.1780563000066,None,1252.2854024999979,None,1253.2845608000061,None,1257.7978347000026,None,1257.7978347000026,None,j,1257.7978347000026,None,1258.1638363999955,None,0.3462786000018241,,,,,,,sb,2022_Mar_06_0746,rdk-discrimination,2021.2.3,60.11544570619985,
right,right,,,,,1,67,147,26,0.01437092998821754,1.0143709299882175,1259.6399665000063,None,1259.745822099998,None,1260.7450590999943,None,1265.757355099995,None,1265.757355099995,None,j,1265.757355099995,None,1266.0237956000055,None,0.24933859999873675,,,,,,,sb,2022_Mar_06_0746,rdk-discrimination,2021.2.3,60.11544570619985,
none,left,,,,,1,68,148,53,0.013786329989670776,1.0137863299896708,1267.4988212000026,None,1267.6056337000045,None,1268.6048169999995,None,1272.6182988999935,None,1272.6182988999935,None,f,1272.6182988999935,None,1272.9841232000035,None,0.34388879999460187,,,,,,,sb,2022_Mar_06_0746,rdk-discrimination,2021.2.3,60.11544570619985,
none,left,,,,,1,69,149,56,0.014343430011649616,1.0143434300116496,1274.4575751999946,None,1275.6651723999967,None,1276.664224299995,None,1281.1771980000049,None,1281.1771980000049,None,f,1281.1771980000049,None,1281.4602173000021,None,0.2617593000031775,,,,,,,sb,2022_Mar_06_0746,rdk-discrimination,2021.2.3,60.11544570619985,
none,right,,,,,1,70,150,73,0.014743530002306215,1.0147435300023062,1282.935056000002,None,1283.741534300003,None,1284.7407925000007,None,1289.253726199997,None,1289.253726199997,None,f,1289.253726199997,None,1289.5198456999933,None,0.24731040000915527,,,,,,,sb,2022_Mar_06_0746,rdk-discrimination,2021.2.3,60.11544570619985,
none,right,,,,,1,71,151,71,0.014023129973793402,1.0140231299737934,1290.9963113999984,None,1291.801244400005,None,1292.800456500001,None,1296.8134982000047,None,1296.8134982000047,None,j,1296.8134982000047,None,1297.1467743999965,None,0.3034355999989202,,,,,,,sb,2022_Mar_06_0746,rdk-discrimination,2021.2.3,60.11544570619985,
none,left,,,,,1,72,152,40,0.013955129994428717,1.0139551299944287,1298.6217558000062,None,1299.4277914999984,None,1300.4271819999994,None,1304.9399635000009,None,1304.9399635000009,None,j,1304.9399635000009,None,1305.405990500003,None,0.44301229999109637,,,,,,,sb,2022_Mar_06_0746,rdk-discrimination,2021.2.3,60.11544570619985,
none,right,,,,,1,73,153,68,0.013804029993480071,1.01380402999348,1306.8813744000072,None,1308.087001699998,None,1309.0859322000033,None,1314.0985547000018,None,1314.0985547000018,None,j,1314.0985547000018,None,1314.348231099997,None,0.2341177000052994,,,,,,,sb,2022_Mar_06_0746,rdk-discrimination,2021.2.3,60.11544570619985,
none,left,,,,,1,74,154,41,0.014615230000345036,1.014615230000345,1315.8233391999966,None,1315.9299220999965,None,1316.9292833000072,None,1321.4419720000005,None,1321.4419720000005,None,j,1321.4419720000005,None,1321.9250851999968,None,0.4527869000012288,,,,,,,sb,2022_Mar_06_0746,rdk-discrimination,2021.2.3,60.11544570619985,
right,right,,,,,1,75,155,18,0.013970030006021261,1.0139700300060213,1323.4006068000017,None,1323.7566248999938,None,1324.7557652999967,None,1328.7690726,None,1328.7690726,None,j,1328.7690726,None,1329.1186752000067,None,0.33362320000014734,,,,,,,sb,2022_Mar_06_0746,rdk-discrimination,2021.2.3,60.11544570619985,
right,right,,,,,1,76,156,17,0.014708529997733422,1.0147085299977334,1330.5947097000026,None,1331.4001009000058,None,1332.398971100003,None,1335.8132143999974,None,1335.8132143999974,None,j,1335.8132143999974,None,1336.146020100001,None,0.301333399998839,,,,,,,sb,2022_Mar_06_0746,rdk-discrimination,2021.2.3,60.11544570619985,
right,right,,,,,1,77,157,30,0.014934429986169562,1.0149344299861696,1337.6213945000054,None,1338.427470499999,None,1339.4262369000062,None,1344.4390114999987,None,1344.4390114999987,None,j,1344.4390114999987,None,1344.7219664000004,None,0.26426579999679234,,,,,,,sb,2022_Mar_06_0746,rdk-discrimination,2021.2.3,60.11544570619985,
none,right,,,,,1,78,158,70,0.013970429994515143,1.0139704299945151,1346.1976064000046,None,1346.5533107999945,None,1347.552707499999,None,1352.565142899999,None,1352.565142899999,None,j,1352.565142899999,None,1352.9479829000047,None,0.3595583999995142,,,,,,,sb,2022_Mar_06_0746,rdk-discrimination,2021.2.3,60.11544570619985,
left,left,,,,,1,79,159,15,0.014402429995243438,1.0144024299952434,1354.4223053000023,None,1355.2292452999973,None,1356.2282820999972,None,1359.6428667,None,1359.6428667,None,f,1359.6428667,None,1360.0751237000077,None,0.4093525999924168,,,,,,,sb,2022_Mar_06_0746,rdk-discrimination,2021.2.3,60.11544570619985,
