cue,direction,practice_block_loop.thisRepN,practice_block_loop.thisTrialN,practice_block_loop.thisN,practice_block_loop.thisIndex,main_blocks_loop.thisRepN,main_blocks_loop.thisTrialN,main_blocks_loop.thisN,main_blocks_loop.thisIndex,static_isi.started,static_isi.stopped,fixation_pre.started,fixation_pre.stopped,image.started,image.stopped,fixation_post.started,fixation_post.stopped,dots_background.started,dots_background.stopped,dots_stimulus.started,dots_stimulus.stopped,dots_keyboard_response.keys,dots_keyboard_response.rt,dots_keyboard_response.started,dots_keyboard_response.stopped,feedback_text.started,feedback_text.stopped,instruction_main_text.started,instruction_main_text.stopped,instruction_main_keyboard_response.keys,instruction_main_keyboard_response.rt,instruction_main_keyboard_response.started,instruction_main_keyboard_response.stopped,Pseudonym,date,expName,psychopyVersion,frameRate,
left,right,0,0,0,2,,,,,0.002307590009877458,1.0023075900098775,42.342962300012005,None,42.74118840000301,None,43.7191518000036,None,47.140768400000525,None,47.140768400000525,None,f,1.33311560000584,47.140768400000525,None,48.50282780000998,None,,,,,,,SS91,2022_Mar_06_0953,rdk-discrimination,2021.2.3,59.944635133868026,
none,left,0,1,1,4,,,,,0.014042489987332374,1.0140424899873324,49.99043289999827,None,50.3467088000034,None,51.3462370000052,None,54.75981139999931,None,54.75981139999931,None,j,1.2625816999934614,54.75981139999931,None,56.041985500007286,None,,,,,,,SS91,2022_Mar_06_0953,rdk-discrimination,2021.2.3,59.944635133868026,
right,left,0,2,2,3,,,,,0.013915789997554384,1.0139157899975544,57.51763729999948,None,58.722847199998796,None,59.72185880001052,None,63.735381899998174,None,63.735381899998174,None,j,1.4088118000072427,63.735381899998174,None,65.16700890001084,None,,,,,,,SS91,2022_Mar_06_0953,rdk-discrimination,2021.2.3,59.944635133868026,
none,right,0,3,3,5,,,,,0.014134490003925748,1.0141344900039257,66.64186370000243,None,66.7491413000098,None,67.7482302999997,None,71.76172550000774,None,71.76172550000774,None,j,1.4612141999969026,71.76172550000774,None,73.24335780000547,None,,,,,,,SS91,2022_Mar_06_0953,rdk-discrimination,2021.2.3,59.944635133868026,
left,left,0,4,4,0,,,,,0.014067290001548827,1.0140672900015488,74.71887640000205,None,74.82524200000626,None,75.8245023000054,None,80.83712530000776,None,80.83712530000776,None,f,0.48583679999865126,80.83712530000776,None,81.35328630000004,None,,,,,,,SS91,2022_Mar_06_0953,rdk-discrimination,2021.2.3,59.944635133868026,
right,right,0,5,5,1,,,,,0.01507269000285305,1.015072690002853,82.82781990000512,None,83.63454410000122,None,84.6336033000116,None,89.1464316000056,None,89.1464316000056,None,j,0.31754910000017844,89.1464316000056,None,89.47949430000153,None,,,,,,,SS91,2022_Mar_06_0953,rdk-discrimination,2021.2.3,59.944635133868026,
,,,,,,,,,,,,,,,,,,,,,,,,,,,,89.97900180000579,None,space,2.2880285999999614,89.97900180000579,None,SS91,2022_Mar_06_0953,rdk-discrimination,2021.2.3,59.944635133868026,
none,left,,,,,0,0,0,53,0.0031597900087945163,1.0031597900087945,93.27961260000302,None,94.09199290000834,None,95.09104880000814,None,100.1036282999994,None,100.1036282999994,None,j,0.9894150000036461,100.1036282999994,None,101.11934200000542,None,,,,,,,SS91,2022_Mar_06_0953,rdk-discrimination,2021.2.3,59.944635133868026,
none,right,,,,,0,1,1,79,0.01423488998261746,1.0142348899826175,102.59449090000999,None,102.95097309999983,None,103.95007299999997,None,108.96254610001051,None,108.96254610001051,None,j,1.3572795999934897,108.96254610001051,None,110.34451980001177,None,,,,,,,SS91,2022_Mar_06_0953,rdk-discrimination,2021.2.3,59.944635133868026,
none,left,,,,,0,2,2,42,0.014021890005096793,1.0140218900050968,111.82114510000974,None,112.62596699999995,None,113.62494990001142,None,118.63733219999995,None,118.63733219999995,None,None,,118.63733219999995,None,120.13582999999926,None,,,,,,,SS91,2022_Mar_06_0953,rdk-discrimination,2021.2.3,59.944635133868026,
right,right,,,,,0,3,3,24,0.014598089997889474,1.0145980899978895,121.61094260000391,None,122.81703090001247,None,123.81606100000499,None,127.22999330000312,None,127.22999330000312,None,j,0.4279287999961525,127.22999330000312,None,127.67951919999905,None,,,,,,,SS91,2022_Mar_06_0953,rdk-discrimination,2021.2.3,59.944635133868026,
right,right,,,,,0,4,4,30,0.013808589996187948,1.013808589996188,129.15444969999953,None,129.51104810000106,None,130.51032440000563,None,135.52276720000373,None,135.52276720000373,None,j,0.29629870000644587,135.52276720000373,None,135.83886400000483,None,,,,,,,SS91,2022_Mar_06_0953,rdk-discrimination,2021.2.3,59.944635133868026,
none,left,,,,,0,5,5,43,0.01375258999178186,1.0137525899917819,137.31392369999958,None,138.12026010001136,None,139.11949820000154,None,144.13200550001056,None,144.13200550001056,None,f,0.28274780001083855,144.13200550001056,None,144.4315545999998,None,,,,,,,SS91,2022_Mar_06_0953,rdk-discrimination,2021.2.3,59.944635133868026,
none,right,,,,,0,6,6,65,0.014122890017461032,1.014122890017461,145.90721820000908,None,146.71294920000946,None,147.71194170000672,None,151.1258821000083,None,151.1258821000083,None,j,0.7566941000113729,151.1258821000083,None,151.90832110001065,None,,,,,,,SS91,2022_Mar_06_0953,rdk-discrimination,2021.2.3,59.944635133868026,
right,right,,,,,0,7,7,23,0.013731689978158101,1.013731689978158,153.38303650000307,None,154.5893405000097,None,155.58851650000724,None,160.10145170000033,None,160.10145170000033,None,j,0.8451649000053294,160.10145170000033,None,160.96708139999828,None,,,,,,,SS91,2022_Mar_06_0953,rdk-discrimination,2021.2.3,59.944635133868026,
right,right,,,,,0,8,8,27,0.014402889995835721,1.0144028899958357,162.44190250000975,None,163.64809149999928,None,164.6470590000099,None,169.16010829999868,None,169.16010829999868,None,f,1.0455396000033943,169.16010829999868,None,170.22569150000345,None,,,,,,,SS91,2022_Mar_06_0953,rdk-discrimination,2021.2.3,59.944635133868026,
none,right,,,,,0,9,9,71,0.014738189987838268,1.0147381899878383,171.70043019999866,None,172.90671100000327,None,173.90578460000688,None,178.41859510001086,None,178.41859510001086,None,f,0.8005658999900334,178.41859510001086,None,179.2343969000067,None,,,,,,,SS91,2022_Mar_06_0953,rdk-discrimination,2021.2.3,59.944635133868026,
right,right,,,,,0,10,10,19,0.01438898999185767,1.0143889899918577,180.70875869999873,None,181.51591339999868,None,182.51488390000304,None,185.928654000003,None,185.928654000003,None,j,0.49660499999299645,185.928654000003,None,186.44483430001128,None,,,,,,,SS91,2022_Mar_06_0953,rdk-discrimination,2021.2.3,59.944635133868026,
none,left,,,,,0,11,11,41,0.014826089987764135,1.0148260899877641,187.91942530000233,None,188.7259456000029,None,189.72502920000989,None,193.13907410000684,None,193.13907410000684,None,j,1.2601703999971505,193.13907410000684,None,194.42114650001167,None,,,,,,,SS91,2022_Mar_06_0953,rdk-discrimination,2021.2.3,59.944635133868026,
left,right,,,,,0,12,12,34,0.014706889996887185,1.0147068899968872,195.89632410000195,None,196.25296530000924,None,197.25204540000414,None,201.76496660000703,None,201.76496660000703,None,None,,201.76496660000703,None,203.26354840000567,None,,,,,,,SS91,2022_Mar_06_0953,rdk-discrimination,2021.2.3,59.944635133868026,
right,right,,,,,0,13,13,18,0.014464790001511574,1.0144647900015116,204.7387471000111,None,204.8455524000019,None,205.84460200001195,None,209.85811210000247,None,209.85811210000247,None,j,0.5836683000088669,209.85811210000247,None,210.45731019999948,None,,,,,,,SS91,2022_Mar_06_0953,rdk-discrimination,2021.2.3,59.944635133868026,
left,left,,,,,0,14,14,6,0.014301090006483719,1.0143010900064837,211.93463920000067,None,212.73870960000204,None,213.7377761000098,None,218.25064740001108,None,218.25064740001108,None,f,0.4184665000066161,218.25064740001108,None,218.69996890000766,None,,,,,,,SS91,2022_Mar_06_0953,rdk-discrimination,2021.2.3,59.944635133868026,
none,left,,,,,0,15,15,50,0.013853689990355633,1.0138536899903556,220.17602500000794,None,220.981454400011,None,221.980553100002,None,225.99391380000452,None,225.99391380000452,None,j,1.3782257000129903,225.99391380000452,None,227.3925229000015,None,,,,,,,SS91,2022_Mar_06_0953,rdk-discrimination,2021.2.3,59.944635133868026,
left,left,,,,,0,16,16,11,0.013940689997980371,1.0139406899979804,228.86850960001175,None,228.97429700000794,None,229.97353570000269,None,234.98603480000747,None,234.98603480000747,None,f,0.4882534999924246,234.98603480000747,None,235.50190570000268,None,,,,,,,SS91,2022_Mar_06_0953,rdk-discrimination,2021.2.3,59.944635133868026,
none,right,,,,,0,17,17,76,0.0145000899938168,1.0145000899938168,236.97587829999975,None,237.78341200000432,None,238.78246919999947,None,242.79780030000256,None,242.79780030000256,None,f,0.4999506000021938,242.79780030000256,None,243.32864079999854,None,,,,,,,SS91,2022_Mar_06_0953,rdk-discrimination,2021.2.3,59.944635133868026,
none,left,,,,,0,18,18,44,0.013959489995613694,1.0139594899956137,244.80394100000558,None,245.1605128000083,None,246.15927660001034,None,251.17206110000552,None,251.17206110000552,None,j,0.4226529000006849,251.17206110000552,None,251.62138970001251,None,,,,,,,SS91,2022_Mar_06_0953,rdk-discrimination,2021.2.3,59.944635133868026,
none,left,,,,,0,19,19,51,0.01385698998637963,1.0138569899863796,253.0973784000089,None,253.45310900000914,None,254.45222570000624,None,259.46470120000595,None,259.46470120000595,None,j,0.8726494000002276,259.46470120000595,None,260.3638437000045,None,,,,,,,SS91,2022_Mar_06_0953,rdk-discrimination,2021.2.3,59.944635133868026,
left,left,,,,,0,20,20,8,0.014402289991267025,1.014402289991267,261.83832170000824,None,262.6449292000034,None,263.6442008000013,None,267.0577639000112,None,267.0577639000112,None,j,0.7065053999976953,267.0577639000112,None,267.7904864000011,None,,,,,,,SS91,2022_Mar_06_0953,rdk-discrimination,2021.2.3,59.944635133868026,
none,left,,,,,0,21,21,59,0.014445590000832453,1.0144455900008325,269.2658292999986,None,270.0719625000056,None,271.0708631000016,None,276.0834765000036,None,276.0834765000036,None,j,0.47770100001071114,276.0834765000036,None,276.5829056000075,None,,,,,,,SS91,2022_Mar_06_0953,rdk-discrimination,2021.2.3,59.944635133868026,
left,left,,,,,0,22,22,0,0.014326489996165037,1.014326489996165,278.05893730001117,None,278.4147076000081,None,279.4135787999985,None,284.4262724,None,284.4262724,None,f,0.6456379000010202,284.4262724,None,285.0920283000014,None,,,,,,,SS91,2022_Mar_06_0953,rdk-discrimination,2021.2.3,59.944635133868026,
left,left,,,,,0,23,23,5,0.014299090005806647,1.0142990900058066,286.56694300001254,None,286.67387920001056,None,287.6731165000092,None,291.6864160000114,None,291.6864160000114,None,j,0.9923239000054309,291.6864160000114,None,292.70208030000504,None,,,,,,,SS91,2022_Mar_06_0953,rdk-discrimination,2021.2.3,59.944635133868026,
none,left,,,,,0,24,24,55,0.014379490006831475,1.0143794900068315,294.1774211000011,None,294.28388780000387,None,295.28311830000894,None,299.2967875000031,None,299.2967875000031,None,f,0.3242026999942027,299.2967875000031,None,299.6463122999994,None,,,,,,,SS91,2022_Mar_06_0953,rdk-discrimination,2021.2.3,59.944635133868026,
none,left,,,,,0,25,25,52,0.014003690012032166,1.0140036900120322,301.12122670000826,None,301.2283407000068,None,302.22704440000234,None,305.6409233000013,None,305.6409233000013,None,f,0.4556490999966627,305.6409233000013,None,306.1237003999995,None,,,,,,,SS91,2022_Mar_06_0953,rdk-discrimination,2021.2.3,59.944635133868026,
right,left,,,,,0,26,26,37,0.014376389983226545,1.0143763899832265,307.59885990001203,None,307.9556284999999,None,308.95455010001024,None,313.467309700005,None,313.467309700005,None,j,0.4587333999952534,313.467309700005,None,313.95029259999865,None,,,,,,,SS91,2022_Mar_06_0953,rdk-discrimination,2021.2.3,59.944635133868026,
none,right,,,,,0,27,27,78,0.01452749001327902,1.014527490013279,315.42578630000935,None,315.78191530000186,None,316.780917600001,None,320.19484720000764,None,320.19484720000764,None,f,0.573839599994244,320.19484720000764,None,320.79412890000094,None,,,,,,,SS91,2022_Mar_06_0953,rdk-discrimination,2021.2.3,59.944635133868026,
left,left,,,,,0,28,28,13,0.014112190008745529,1.0141121900087455,322.2688294000109,None,322.3760983000102,None,323.37535370000114,None,326.7896461000055,None,326.7896461000055,None,j,0.6761222999921301,326.7896461000055,None,327.4884369000065,None,,,,,,,SS91,2022_Mar_06_0953,rdk-discrimination,2021.2.3,59.944635133868026,
right,right,,,,,0,29,29,17,0.014407689988729544,1.0144076899887295,328.96249869999883,None,329.7699536,None,330.7688607000018,None,334.18276380001043,None,334.18276380001043,None,f,0.5102860999904806,334.18276380001043,None,334.7154317000095,None,,,,,,,SS91,2022_Mar_06_0953,rdk-discrimination,2021.2.3,59.944635133868026,
right,right,,,,,0,30,30,25,0.01438539000810124,1.0143853900081012,336.1897229000024,None,336.29728300000716,None,337.29664910001156,None,341.80959900000016,None,341.80959900000016,None,j,0.32310799999686424,341.80959900000016,None,342.1591424000071,None,,,,,,,SS91,2022_Mar_06_0953,rdk-discrimination,2021.2.3,59.944635133868026,
none,right,,,,,0,31,31,66,0.01426449000427965,1.0142644900042797,343.63385579999886,None,343.9907615999982,None,344.98982770000293,None,349.50281380000524,None,349.50281380000524,None,j,0.8022612999920966,349.50281380000524,None,350.33509649999905,None,,,,,,,SS91,2022_Mar_06_0953,rdk-discrimination,2021.2.3,59.944635133868026,
right,right,,,,,0,32,32,22,0.014170990005368367,1.0141709900053684,351.81127760000527,None,352.61692210000183,None,353.6157426999998,None,358.12850320000143,None,358.12850320000143,None,j,0.5520480000122916,358.12850320000143,None,358.71139770001173,None,,,,,,,SS91,2022_Mar_06_0953,rdk-discrimination,2021.2.3,59.944635133868026,
right,right,,,,,0,33,33,20,0.014605889984522946,1.014605889984523,360.1862989000074,None,360.5432710000023,None,361.5419818000082,None,366.554452700002,None,366.554452700002,None,j,0.35393399999884423,366.554452700002,None,366.9372721000109,None,,,,,,,SS91,2022_Mar_06_0953,rdk-discrimination,2021.2.3,59.944635133868026,
none,right,,,,,0,34,34,75,0.01510248999693431,1.0151024899969343,368.41090760000225,None,368.76927850001084,None,369.7681395000109,None,373.182043000008,None,373.182043000008,None,j,0.5468586000060895,373.182043000008,None,373.7481043000007,None,,,,,,,SS91,2022_Mar_06_0953,rdk-discrimination,2021.2.3,59.944635133868026,
none,right,,,,,0,35,35,70,0.014123689994448796,1.0141236899944488,375.22388160000264,None,375.33036980000907,None,376.3293151000107,None,379.74307730000874,None,379.74307730000874,None,f,0.5936017999920296,379.74307730000874,None,380.3590038000111,None,,,,,,,SS91,2022_Mar_06_0953,rdk-discrimination,2021.2.3,59.944635133868026,
none,left,,,,,0,36,36,54,0.014481090009212494,1.0144810900092125,381.8352492000122,None,382.1909607999987,None,383.1897775000107,None,387.20344510000723,None,387.20344510000723,None,j,0.9316259000042919,387.20344510000723,None,388.1521381000057,None,,,,,,,SS91,2022_Mar_06_0953,rdk-discrimination,2021.2.3,59.944635133868026,
left,left,,,,,0,37,37,15,0.014805489976424724,1.0148054899764247,389.62657440001203,None,389.73420610000903,None,390.73355010000523,None,395.74571950000245,None,395.74571950000245,None,f,0.6777393000083975,395.74571950000245,None,396.44496010000876,None,,,,,,,SS91,2022_Mar_06_0953,rdk-discrimination,2021.2.3,59.944635133868026,
right,left,,,,,0,38,38,38,0.014246590013499372,1.0142465900134994,397.9198222000123,None,398.72653840000567,None,399.72530460001144,None,404.2383487000043,None,404.2383487000043,None,j,0.8000396999996156,404.2383487000043,None,405.05412140001135,None,,,,,,,SS91,2022_Mar_06_0953,rdk-discrimination,2021.2.3,59.944635133868026,
left,left,,,,,0,39,39,1,0.014192989998264238,1.0141929899982642,406.5294245000114,None,407.73527760000434,None,408.7343506000034,None,412.7475775000057,None,412.7475775000057,None,f,0.32851259999733884,412.7475775000057,None,413.0973665000056,None,,,,,,,SS91,2022_Mar_06_0953,rdk-discrimination,2021.2.3,59.944635133868026,
none,left,,,,,0,40,40,48,0.014530090003972873,1.0145300900039729,414.57255660000374,None,415.77833549999923,None,416.7775055000093,None,421.78993600000103,None,421.78993600000103,None,j,0.8665357999998378,421.78993600000103,None,422.6720217000111,None,,,,,,,SS91,2022_Mar_06_0953,rdk-discrimination,2021.2.3,59.944635133868026,
none,right,,,,,0,41,41,69,0.014275890003773384,1.0142758900037734,424.14811490000284,None,424.5037927000085,None,425.50295140000526,None,429.51639460001024,None,429.51639460001024,None,f,0.6336860000010347,429.51639460001024,None,430.1655587999994,None,,,,,,,SS91,2022_Mar_06_0953,rdk-discrimination,2021.2.3,59.944635133868026,
none,right,,,,,0,42,42,61,0.01414609000494238,1.0141460900049424,431.640893600008,None,432.8466088999994,None,433.84576590001234,None,437.259833300006,None,437.259833300006,None,j,0.5599980999977561,437.259833300006,None,437.8421243000048,None,,,,,,,SS91,2022_Mar_06_0953,rdk-discrimination,2021.2.3,59.944635133868026,
left,right,,,,,0,43,43,33,0.014378389998455532,1.0143783899984555,439.3163734000118,None,440.1235263999988,None,441.1228068000055,None,444.53649450000376,None,444.53649450000376,None,f,0.35263349999149796,444.53649450000376,None,444.9193107000028,None,,,,,,,SS91,2022_Mar_06_0953,rdk-discrimination,2021.2.3,59.944635133868026,
none,right,,,,,0,44,44,77,0.013955490008811466,1.0139554900088115,446.39489300000423,None,446.5013328000059,None,447.5004845000076,None,450.91443889999937,None,450.91443889999937,None,j,0.4491701999941142,450.91443889999937,None,451.38070910000533,None,,,,,,,SS91,2022_Mar_06_0953,rdk-discrimination,2021.2.3,59.944635133868026,
right,right,,,,,0,45,45,28,0.014719889994012192,1.0147198899940122,452.8554344000004,None,454.0613909000094,None,455.0605115000071,None,459.5732863000012,None,459.5732863000012,None,j,0.3455065000016475,459.5732863000012,None,459.93967160000466,None,,,,,,,SS91,2022_Mar_06_0953,rdk-discrimination,2021.2.3,59.944635133868026,
left,left,,,,,0,46,46,3,0.013914690003730357,1.0139146900037304,461.4145647000114,None,462.6209119999985,None,463.619683900004,None,468.1326757000061,None,468.1326757000061,None,j,0.642881399995531,468.1326757000061,None,468.7986824000109,None,,,,,,,SS91,2022_Mar_06_0953,rdk-discrimination,2021.2.3,59.944635133868026,
left,left,,,,,0,47,47,9,0.014411989992368035,1.014411989992368,470.2740558000078,None,470.63028940001095,None,471.629316999999,None,475.64278500000364,None,475.64278500000364,None,f,0.3066106000042055,475.64278500000364,None,475.97566710000683,None,,,,,,,SS91,2022_Mar_06_0953,rdk-discrimination,2021.2.3,59.944635133868026,
left,left,,,,,0,48,48,14,0.014753490017028525,1.0147534900170285,477.4506854000065,None,477.80746710000676,None,478.8065908999997,None,483.319493300005,None,483.319493300005,None,f,0.5731866999994963,483.319493300005,None,483.9187119999988,None,,,,,,,SS91,2022_Mar_06_0953,rdk-discrimination,2021.2.3,59.944635133868026,
none,right,,,,,0,49,49,72,0.01399188999494072,1.0139918899949407,485.39351930000703,None,486.59998490000726,None,487.5991703000036,None,492.61133510000946,None,492.61133510000946,None,j,0.38485319999745116,492.61133510000946,None,493.01077030001034,None,,,,,,,SS91,2022_Mar_06_0953,rdk-discrimination,2021.2.3,59.944635133868026,
left,right,,,,,0,50,50,32,0.013909690009313636,1.0139096900093136,494.486166600007,None,494.84262070000113,None,495.8417680999992,None,500.85410540000885,None,500.85410540000885,None,f,0.4236226000066381,500.85410540000885,None,501.3035411000019,None,,,,,,,SS91,2022_Mar_06_0953,rdk-discrimination,2021.2.3,59.944635133868026,
none,right,,,,,0,51,51,63,0.014723090003826655,1.0147230900038267,502.7785134000005,None,502.8853395000042,None,503.8845360000123,None,508.89710080000805,None,508.89710080000805,None,j,0.33852409999235533,508.89710080000805,None,509.26321350000217,None,,,,,,,SS91,2022_Mar_06_0953,rdk-discrimination,2021.2.3,59.944635133868026,
right,left,,,,,0,52,52,36,0.014863090007565916,1.014863090007566,510.73742290001246,None,510.845089800001,None,511.8444775000098,None,516.8569057999994,None,516.8569057999994,None,j,0.416739400010556,516.8569057999994,None,517.2894822000089,None,,,,,,,SS91,2022_Mar_06_0953,rdk-discrimination,2021.2.3,59.944635133868026,
none,right,,,,,0,53,53,62,0.014377489991602488,1.0143774899916025,518.7649114000087,None,519.9708611000096,None,520.9698562999984,None,525.482775299999,None,525.482775299999,None,f,0.5890896999917459,525.482775299999,None,526.0988494000048,None,,,,,,,SS91,2022_Mar_06_0953,rdk-discrimination,2021.2.3,59.944635133868026,
none,left,,,,,0,54,54,47,0.01470229000551626,1.0147022900055163,527.572619700004,None,528.3802870000072,None,529.3791872000002,None,533.3924952000089,None,533.3924952000089,None,j,0.5834750999929383,533.3924952000089,None,533.9918921000062,None,,,,,,,SS91,2022_Mar_06_0953,rdk-discrimination,2021.2.3,59.944635133868026,
none,left,,,,,0,55,55,57,0.014039289992069826,1.0140392899920698,535.4684907000046,None,535.5735998000018,None,536.5728616999986,None,539.9867357000039,None,539.9867357000039,None,j,0.6430928999907337,539.9867357000039,None,540.6527773000125,None,,,,,,,SS91,2022_Mar_06_0953,rdk-discrimination,2021.2.3,59.944635133868026,
none,right,,,,,0,56,56,60,0.013740289985435084,1.013740289985435,542.1281113000005,None,542.2346860000107,None,543.2338978000043,None,547.7466329000017,None,547.7466329000017,None,f,0.648259199995664,547.7466329000017,None,548.4126503000007,None,,,,,,,SS91,2022_Mar_06_0953,rdk-discrimination,2021.2.3,59.944635133868026,
none,left,,,,,0,57,57,49,0.0138562899956014,1.0138562899956014,549.887974000012,None,549.994418000002,None,550.9936140000063,None,554.4076256000117,None,554.4076256000117,None,j,0.49132109999482054,554.4076256000117,None,554.9237422000006,None,,,,,,,SS91,2022_Mar_06_0953,rdk-discrimination,2021.2.3,59.944635133868026,
left,left,,,,,0,58,58,10,0.014511289991787635,1.0145112899917876,556.3997041000111,None,556.755468000003,None,557.7545812000026,None,561.7677600000025,None,561.7677600000025,None,f,0.383018099993933,561.7677600000025,None,562.1672254000005,None,,,,,,,SS91,2022_Mar_06_0953,rdk-discrimination,2021.2.3,59.944635133868026,
none,right,,,,,0,59,59,64,0.01372378999076318,1.0137237899907632,563.6433344000106,None,563.7490878000099,None,564.7482835999981,None,568.1622537000076,None,568.1622537000076,None,j,0.6057178999908501,568.1622537000076,None,568.7949240000016,None,,,,,,,SS91,2022_Mar_06_0953,rdk-discrimination,2021.2.3,59.944635133868026,
left,left,,,,,0,60,60,2,0.014136190002318472,1.0141361900023185,570.2709674000071,None,570.6266151000018,None,571.625638700003,None,575.639152600008,None,575.639152600008,None,f,0.4516328000026988,575.639152600008,None,576.1217246000015,None,,,,,,,SS91,2022_Mar_06_0953,rdk-discrimination,2021.2.3,59.944635133868026,
none,left,,,,,0,61,61,45,0.013866389985196292,1.0138663899851963,577.5984121000074,None,577.9535481000057,None,578.9525826000026,None,583.4656545000034,None,583.4656545000034,None,j,0.557947499997681,583.4656545000034,None,584.0481906000059,None,,,,,,,SS91,2022_Mar_06_0953,rdk-discrimination,2021.2.3,59.944635133868026,
right,right,,,,,0,62,62,26,0.014383989997440949,1.014383989997441,585.5240564999986,None,586.3295666000049,None,587.3285945000098,None,591.3420282000006,None,591.3420282000006,None,j,0.39278039999771863,591.3420282000006,None,591.7583188999997,None,,,,,,,SS91,2022_Mar_06_0953,rdk-discrimination,2021.2.3,59.944635133868026,
none,left,,,,,0,63,63,56,0.013774390012258664,1.0137743900122587,593.233243900002,None,593.3402281000017,None,594.3393502000108,None,599.3517231000005,None,599.3517231000005,None,j,0.670143299998017,599.3517231000005,None,600.050954899998,None,,,,,,,SS91,2022_Mar_06_0953,rdk-discrimination,2021.2.3,59.944635133868026,
left,right,,,,,0,64,64,35,0.014619689987739548,1.0146196899877395,601.5255202000117,None,602.7320081000071,None,603.7310224000103,None,607.7445274000056,None,607.7445274000056,None,f,0.3910087999975076,607.7445274000056,None,608.1606976000039,None,,,,,,,SS91,2022_Mar_06_0953,rdk-discrimination,2021.2.3,59.944635133868026,
right,right,,,,,0,65,65,31,0.014140389990643598,1.0141403899906436,609.6350239000021,None,609.7424625999993,None,610.7418387000071,None,614.7549857000122,None,614.7549857000122,None,j,0.4288325999950757,614.7549857000122,None,615.2044901000045,None,,,,,,,SS91,2022_Mar_06_0953,rdk-discrimination,2021.2.3,59.944635133868026,
left,left,,,,,0,66,66,12,0.013872589988750406,1.0138725899887504,616.6793654000066,None,617.036210300008,None,618.0351584000018,None,621.4492031000118,None,621.4492031000118,None,f,0.4092873000045074,621.4492031000118,None,621.8819489000016,None,,,,,,,SS91,2022_Mar_06_0953,rdk-discrimination,2021.2.3,59.944635133868026,
left,left,,,,,0,67,67,4,0.013885590014979243,1.0138855900149792,623.3577209000068,None,624.1633064000052,None,625.1624196000048,None,630.174986500002,None,630.174986500002,None,j,0.862427200001548,630.174986500002,None,631.0573128000105,None,,,,,,,SS91,2022_Mar_06_0953,rdk-discrimination,2021.2.3,59.944635133868026,
right,right,,,,,0,68,68,21,0.01462249000906013,1.0146224900090601,632.5314263000037,None,633.3385420999984,None,634.3376579000033,None,639.3502436999988,None,639.3502436999988,None,j,0.41181769999093376,639.3502436999988,None,639.7829410999984,None,,,,,,,SS91,2022_Mar_06_0953,rdk-discrimination,2021.2.3,59.944635133868026,
none,left,,,,,0,69,69,40,0.014362789996084757,1.0143627899960848,641.2578827000107,None,641.3648682000057,None,642.3640019000013,None,646.3774903000012,None,646.3774903000012,None,j,0.571382199996151,646.3774903000012,None,646.9767135000002,None,,,,,,,SS91,2022_Mar_06_0953,rdk-discrimination,2021.2.3,59.944635133868026,
right,left,,,,,0,70,70,39,0.014206389983883128,1.0142063899838831,648.4519186000107,None,648.8085580000043,None,649.8075450000033,None,654.8200643000018,None,654.8200643000018,None,j,0.49883710000722203,654.8200643000018,None,655.3360060999985,None,,,,,,,SS91,2022_Mar_06_0953,rdk-discrimination,2021.2.3,59.944635133868026,
none,right,,,,,0,71,71,73,0.014108190007391386,1.0141081900073914,656.8114887999982,None,657.1678844999988,None,658.1669373000041,None,661.5808485000016,None,661.5808485000016,None,j,0.5672639999975218,661.5808485000016,None,662.1634708000056,None,,,,,,,SS91,2022_Mar_06_0953,rdk-discrimination,2021.2.3,59.944635133868026,
none,right,,,,,0,72,72,68,0.013891390000935644,1.0138913900009356,663.6386302000028,None,664.8445175000088,None,665.8435028000094,None,669.2574315000093,None,669.2574315000093,None,j,0.39700910000829026,669.2574315000093,None,669.673730399998,None,,,,,,,SS91,2022_Mar_06_0953,rdk-discrimination,2021.2.3,59.944635133868026,
left,left,,,,,0,73,73,7,0.013914690003730357,1.0139146900037304,671.1503252000111,None,671.9550604000106,None,672.9540057999984,None,677.9665427,None,677.9665427,None,f,0.4197837999963667,677.9665427,None,678.4159765000077,None,,,,,,,SS91,2022_Mar_06_0953,rdk-discrimination,2021.2.3,59.944635133868026,
right,right,,,,,0,74,74,16,0.014605089992983267,1.0146050899929833,679.8912668999983,None,680.6973709000013,None,681.6963880000112,None,685.1105149000068,None,685.1105149000068,None,j,0.39593039998726454,685.1105149000068,None,685.5265166000027,None,,,,,,,SS91,2022_Mar_06_0953,rdk-discrimination,2021.2.3,59.944635133868026,
right,right,,,,,0,75,75,29,0.014005790013470687,1.0140057900134707,687.0031610000005,None,688.2074272000027,None,689.2065006000048,None,694.2189817000035,None,694.2189817000035,None,j,0.46823319999384694,694.2189817000035,None,694.7183392000006,None,,,,,,,SS91,2022_Mar_06_0953,rdk-discrimination,2021.2.3,59.944635133868026,
none,right,,,,,0,76,76,74,0.01422908999666106,1.014229089996661,696.194152600001,None,696.5501464000117,None,697.5492704000062,None,702.5618148000067,None,702.5618148000067,None,j,0.8359252999944147,702.5618148000067,None,703.4275690000068,None,,,,,,,SS91,2022_Mar_06_0953,rdk-discrimination,2021.2.3,59.944635133868026,
none,right,,,,,0,77,77,67,0.015019690006738529,1.0150196900067385,704.9022154000122,None,705.7089412000059,None,706.7081126000121,None,711.2208661000041,None,711.2208661000041,None,j,0.32808530000329483,711.2208661000041,None,711.5704250999988,None,,,,,,,SS91,2022_Mar_06_0953,rdk-discrimination,2021.2.3,59.944635133868026,
none,left,,,,,0,78,78,58,0.014714389995788224,1.0147143899957882,713.0439328000066,None,714.2514278000017,None,715.250635000004,None,720.2632930000109,None,720.2632930000109,None,j,0.3506351999967592,720.2632930000109,None,720.6458127000078,None,,,,,,,SS91,2022_Mar_06_0953,rdk-discrimination,2021.2.3,59.944635133868026,
none,left,,,,,0,79,79,46,0.014210689987521619,1.0142106899875216,722.1215594000096,None,722.2277324000024,None,723.226860300012,None,726.6409383999999,None,726.6409383999999,None,j,0.48434360000828747,726.6409383999999,None,727.1567676999985,None,,,,,,,SS91,2022_Mar_06_0953,rdk-discrimination,2021.2.3,59.944635133868026,
right,right,,,,,1,0,80,29,0.014273890003096312,1.0142738900030963,728.6323372000043,None,729.8378372000006,None,730.8369837000064,None,734.8501965000032,None,734.8501965000032,None,f,0.4115772999939509,734.8501965000032,None,735.2831461000023,None,,,,,,,SS91,2022_Mar_06_0953,rdk-discrimination,2021.2.3,59.944635133868026,
none,left,,,,,1,1,81,45,0.013909789980971254,1.0139097899809713,736.7589740000112,None,737.9642439000017,None,738.9634304000065,None,742.3771095999982,None,742.3771095999982,None,j,0.40321449999464676,742.3771095999982,None,742.8100121000025,None,,,,,,,SS91,2022_Mar_06_0953,rdk-discrimination,2021.2.3,59.944635133868026,
none,left,,,,,1,2,82,40,0.013867889996618032,1.013867889996618,744.2855454000091,None,745.4909494000021,None,746.4900099000079,None,750.5032825000089,None,750.5032825000089,None,f,0.4670732999948086,750.5032825000089,None,750.9861357000045,None,,,,,,,SS91,2022_Mar_06_0953,rdk-discrimination,2021.2.3,59.944635133868026,
right,right,,,,,1,3,83,16,0.013888790010241792,1.0138887900102418,752.4622009000013,None,752.5679967000033,None,753.5672342000034,None,758.5795126000012,None,758.5795126000012,None,j,0.44622979999985546,758.5795126000012,None,759.0457935000013,None,,,,,,,SS91,2022_Mar_06_0953,rdk-discrimination,2021.2.3,59.944635133868026,
none,left,,,,,1,4,84,56,0.014095389997237362,1.0140953899972374,760.5213287000079,None,760.8779097000079,None,761.8766653000057,None,766.8891073999985,None,766.8891073999985,None,j,0.41650659999868367,766.8891073999985,None,767.3218219999981,None,,,,,,,SS91,2022_Mar_06_0953,rdk-discrimination,2021.2.3,59.944635133868026,
none,right,,,,,1,5,85,73,0.014315089996671304,1.0143150899966713,768.7966858,None,768.9037876000075,None,769.9029340999987,None,773.3168702000112,None,773.3168702000112,None,f,0.8656954000034602,773.3168702000112,None,774.1992637000076,None,,,,,,,SS91,2022_Mar_06_0953,rdk-discrimination,2021.2.3,59.944635133868026,
left,left,,,,,1,6,86,7,0.014488689994323067,1.014488689994323,775.6731963000057,None,776.8802641000075,None,777.879270800011,None,781.2933908000123,None,781.2933908000123,None,f,0.40518870000960305,781.2933908000123,None,781.7260250000108,None,,,,,,,SS91,2022_Mar_06_0953,rdk-discrimination,2021.2.3,59.944635133868026,
none,right,,,,,1,7,87,67,0.014292189996922389,1.0142921899969224,783.2007016999996,None,783.5576805000019,None,784.5568843000074,None,788.5700926999998,None,788.5700926999998,None,f,0.6921643000096083,788.5700926999998,None,789.2860951000039,None,,,,,,,SS91,2022_Mar_06_0953,rdk-discrimination,2021.2.3,59.944635133868026,
left,left,,,,,1,8,88,2,0.01371628999186214,1.0137162899918621,790.7611528999987,None,790.8676544000045,None,791.8669017000066,None,796.3800483000086,None,796.3800483000086,None,j,0.39811209999606945,796.3800483000086,None,796.7961784000072,None,,,,,,,SS91,2022_Mar_06_0953,rdk-discrimination,2021.2.3,59.944635133868026,
none,left,,,,,1,9,89,46,0.014497490003122948,1.014497490003123,798.2712869000097,None,799.4771207000013,None,800.4762557000067,None,804.9891263000027,None,804.9891263000027,None,j,0.4730822999990778,804.9891263000027,None,805.4886063000013,None,,,,,,,SS91,2022_Mar_06_0953,rdk-discrimination,2021.2.3,59.944635133868026,
left,left,,,,,1,10,90,4,0.013791589997708797,1.0137915899977088,806.9643523000123,None,808.1695529999997,None,809.1686001000053,None,812.5825921000069,None,812.5825921000069,None,f,0.3352945000078762,812.5825921000069,None,812.9487298000022,None,,,,,,,SS91,2022_Mar_06_0953,rdk-discrimination,2021.2.3,59.944635133868026,
none,right,,,,,1,11,91,63,0.014489989989669994,1.01448998998967,814.4228688000003,None,814.780565100009,None,815.7795707000041,None,819.7928657000011,None,819.7928657000011,None,f,0.4304427999886684,819.7928657000011,None,820.2423547000071,None,,,,,,,SS91,2022_Mar_06_0953,rdk-discrimination,2021.2.3,59.944635133868026,
none,right,,,,,1,12,92,62,0.014552289998391643,1.0145522899983916,821.716527800003,None,821.8242320999998,None,822.8261364000064,None,826.2373869000003,None,826.2373869000003,None,j,0.4375224000104936,826.2373869000003,None,826.7033968000032,None,,,,,,,SS91,2022_Mar_06_0953,rdk-discrimination,2021.2.3,59.944635133868026,
right,right,,,,,1,13,93,21,0.014026789998752065,1.014026789998752,828.1787998000073,None,829.3843308000069,None,830.3834514000046,None,835.3959332000086,None,835.3959332000086,None,j,0.37277430000540335,835.3959332000086,None,835.795418499998,None,,,,,,,SS91,2022_Mar_06_0953,rdk-discrimination,2021.2.3,59.944635133868026,
none,right,,,,,1,14,94,61,0.013795990016660653,1.0137959900166607,837.2715761,None,838.076802200012,None,839.075877700001,None,844.088413800011,None,844.088413800011,None,j,0.3695590999996057,844.088413800011,None,844.4879339000036,None,,,,,,,SS91,2022_Mar_06_0953,rdk-discrimination,2021.2.3,59.944635133868026,
left,right,,,,,1,15,95,33,0.01424148998921737,1.0142414899892174,845.9630185999995,None,846.0698172999982,None,847.0689674000023,None,851.5819697000115,None,851.5819697000115,None,f,0.5763395999965724,851.5819697000115,None,852.1810396000074,None,,,,,,,SS91,2022_Mar_06_0953,rdk-discrimination,2021.2.3,59.944635133868026,
none,right,,,,,1,16,96,66,0.01417868999124039,1.0141786899912404,853.6569158000057,None,854.0127850999997,None,855.012115400008,None,859.0254549000092,None,859.0254549000092,None,j,0.6227244000037899,859.0254549000092,None,859.6745092000056,None,,,,,,,SS91,2022_Mar_06_0953,rdk-discrimination,2021.2.3,59.944635133868026,
none,right,,,,,1,17,97,68,0.01470168998639565,1.0147016899863956,861.1488679000031,None,861.2563935000071,None,862.2556619000097,None,866.7688372000121,None,866.7688372000121,None,f,0.4289613000000827,866.7688372000121,None,867.2181047000049,None,,,,,,,SS91,2022_Mar_06_0953,rdk-discrimination,2021.2.3,59.944635133868026,
none,left,,,,,1,18,98,51,0.013929989989264868,1.0139299899892649,868.6944299000024,None,869.8991737000033,None,870.8982187000074,None,874.3121013000055,None,874.3121013000055,None,j,0.3206642000004649,874.3121013000055,None,874.6616041000088,None,,,,,,,SS91,2022_Mar_06_0953,rdk-discrimination,2021.2.3,59.944635133868026,
left,left,,,,,1,19,99,12,0.013990890001878142,1.0139908900018781,876.1368866000121,None,876.4933600000077,None,877.4925406000111,None,881.5057071000047,None,881.5057071000047,None,f,0.37686869999743067,881.5057071000047,None,881.9052587000042,None,,,,,,,SS91,2022_Mar_06_0953,rdk-discrimination,2021.2.3,59.944635133868026,
none,left,,,,,1,20,100,54,0.014288589984062128,1.0142885899840621,883.3811942000029,None,884.1865503000008,None,885.1857283999998,None,889.1990898000076,None,889.1990898000076,None,f,0.2970921000087401,889.1990898000076,None,889.5154029000114,None,,,,,,,SS91,2022_Mar_06_0953,rdk-discrimination,2021.2.3,59.944635133868026,
right,right,,,,,1,21,101,23,0.01388088999374304,1.013880889993743,890.9911104000057,None,891.3471385000012,None,892.3461922999995,None,896.3594419000001,None,896.3594419000001,None,j,0.4265902999904938,896.3594419000001,None,896.8090725000075,None,,,,,,,SS91,2022_Mar_06_0953,rdk-discrimination,2021.2.3,59.944635133868026,
right,left,,,,,1,22,102,37,0.013849290000507608,1.0138492900005076,898.2843921000022,None,899.4899488000083,None,900.4890235000057,None,903.902977100006,None,903.902977100006,None,j,0.582940200009034,903.902977100006,None,904.5023199999996,None,,,,,,,SS91,2022_Mar_06_0953,rdk-discrimination,2021.2.3,59.944635133868026,
right,right,,,,,1,23,103,30,0.014547090002452023,1.014547090002452,905.9778681000025,None,906.0842335000052,None,907.0833243000088,None,912.095650400006,None,912.095650400006,None,j,0.32190409999748226,912.095650400006,None,912.4453289000085,None,,,,,,,SS91,2022_Mar_06_0953,rdk-discrimination,2021.2.3,59.944635133868026,
right,right,,,,,1,24,104,28,0.013887390014133416,1.0138873900141334,913.922298999998,None,914.0272639000032,None,915.0264299999981,None,919.539263300001,None,919.539263300001,None,j,0.3233131000015419,919.539263300001,None,919.8889631000056,None,,,,,,,SS91,2022_Mar_06_0953,rdk-discrimination,2021.2.3,59.944635133868026,
right,right,,,,,1,25,105,18,0.014458189980359748,1.0144581899803597,921.3631766000035,None,921.7205977000121,None,922.7195801000053,None,927.2325943000033,None,927.2325943000033,None,j,0.2874015999987023,927.2325943000033,None,927.5488729000062,None,,,,,,,SS91,2022_Mar_06_0953,rdk-discrimination,2021.2.3,59.944635133868026,
none,right,,,,,1,26,106,70,0.013929289998486638,1.0139292899984866,929.0238129000063,None,929.8302509000059,None,930.8292515000066,None,934.8426401000033,None,934.8426401000033,None,j,0.4459717999998247,934.8426401000033,None,935.3086821000034,None,,,,,,,SS91,2022_Mar_06_0953,rdk-discrimination,2021.2.3,59.944635133868026,
right,right,,,,,1,27,107,20,0.014395689984667115,1.0143956899846671,936.7838505000109,None,936.8907851000113,None,937.8898461000063,None,942.4027657000115,None,942.4027657000115,None,j,0.5416820000100415,942.4027657000115,None,942.9686885999981,None,,,,,,,SS91,2022_Mar_06_0953,rdk-discrimination,2021.2.3,59.944635133868026,
none,right,,,,,1,28,108,78,0.01384819000668358,1.0138481900066836,944.4444570000051,None,945.2500147000101,None,946.2490011000045,None,949.6630749000033,None,949.6630749000033,None,j,0.36314869999478105,949.6630749000033,None,950.0459011000057,None,,,,,,,SS91,2022_Mar_06_0953,rdk-discrimination,2021.2.3,59.944635133868026,
left,left,,,,,1,29,109,11,0.01410239000688307,1.014102390006883,951.5217577000003,None,952.3272111000115,None,953.3262593000109,None,957.3396588000032,None,957.3396588000032,None,f,0.42953920000582,957.3396588000032,None,957.7891155000107,None,,,,,,,SS91,2022_Mar_06_0953,rdk-discrimination,2021.2.3,59.944635133868026,
left,right,,,,,1,30,110,35,0.013858589984010905,1.013858589984011,959.2651760000008,None,959.6209652000107,None,960.6200895000075,None,964.6333785000024,None,964.6333785000024,None,f,0.7413053000054788,964.6333785000024,None,965.3991456000076,None,,,,,,,SS91,2022_Mar_06_0953,rdk-discrimination,2021.2.3,59.944635133868026,
left,left,,,,,1,31,111,8,0.01413488999241963,1.0141348899924196,966.8742825000081,None,966.9809920000116,None,967.9802230000059,None,971.9936480000033,None,971.9936480000033,None,j,0.6043667000049027,971.9936480000033,None,972.6262747000001,None,,,,,,,SS91,2022_Mar_06_0953,rdk-discrimination,2021.2.3,59.944635133868026,
none,right,,,,,1,32,112,71,0.013804389993310906,1.013804389993311,974.1018375999993,None,975.3071817000018,None,976.3063379000087,None,980.8191923000122,None,980.8191923000122,None,j,0.3648715000017546,980.8191923000122,None,981.2020197000093,None,,,,,,,SS91,2022_Mar_06_0953,rdk-discrimination,2021.2.3,59.944635133868026,
none,right,,,,,1,33,113,72,0.014051389982341789,1.0140513899823418,982.6775636000093,None,982.7840017999988,None,983.7830765000108,None,988.2960844000045,None,988.2960844000045,None,j,0.8534893000032753,988.2960844000045,None,989.1784383000049,None,,,,,,,SS91,2022_Mar_06_0953,rdk-discrimination,2021.2.3,59.944635133868026,
left,left,,,,,1,34,114,10,0.014536690010572784,1.0145366900105728,990.6527109000017,None,990.7601177000033,None,991.7593868000113,None,995.173432399999,None,995.173432399999,None,f,0.3094347000005655,995.173432399999,None,995.506231700012,None,,,,,,,SS91,2022_Mar_06_0953,rdk-discrimination,2021.2.3,59.944635133868026,
none,right,,,,,1,35,115,79,0.01376299001276493,1.013762990012765,996.9821261000034,None,998.1872403000016,None,999.1863746000017,None,1003.1997296000045,None,1003.1997296000045,None,j,0.31933179999759886,1003.1997296000045,None,1003.5493398000108,None,,,,,,,SS91,2022_Mar_06_0953,rdk-discrimination,2021.2.3,59.944635133868026,
none,left,,,,,1,36,116,59,0.013975890004076064,1.013975890004076,1005.026872500006,None,1005.8306855999981,None,1006.8296802000114,None,1010.2436017,None,1010.2436017,None,f,0.48312169998825993,1010.2436017,None,1010.7430562000081,None,,,,,,,SS91,2022_Mar_06_0953,rdk-discrimination,2021.2.3,59.944635133868026,
none,left,,,,,1,37,117,50,0.014401889988221228,1.0144018899882212,1012.2170580000093,None,1012.3248393000104,None,1013.324033900004,None,1016.7378734000085,None,1016.7378734000085,None,j,0.3784287000016775,1016.7378734000085,None,1017.1373743000004,None,,,,,,,SS91,2022_Mar_06_0953,rdk-discrimination,2021.2.3,59.944635133868026,
right,right,,,,,1,38,118,27,0.014188390006893314,1.0141883900068933,1018.6121475000109,None,1018.9691503000067,None,1019.968305500006,None,1024.4812676000001,None,1024.4812676000001,None,j,0.3553950000059558,1024.4812676000001,None,1024.8640014999983,None,,,,,,,SS91,2022_Mar_06_0953,rdk-discrimination,2021.2.3,59.944635133868026,
right,left,,,,,1,39,119,36,0.014239590003853664,1.0142395900038537,1026.3403636000003,None,1026.6956422000076,None,1027.694834400012,None,1031.1087700000062,None,1031.1087700000062,None,j,0.35299419998773374,1031.1087700000062,None,1031.4915097000048,None,,,,,,,SS91,2022_Mar_06_0953,rdk-discrimination,2021.2.3,59.944635133868026,
none,left,,,,,1,40,120,44,0.013837189981131814,1.0138371899811318,1032.9671185000043,None,1033.7728260000004,None,1034.771992599999,None,1038.185920600008,None,1038.185920600008,None,f,0.8648647000081837,1038.185920600008,None,1039.0683285000123,None,,,,,,,SS91,2022_Mar_06_0953,rdk-discrimination,2021.2.3,59.944635133868026,
right,right,,,,,1,41,121,31,0.013843290013028309,1.0138432900130283,1040.5439846000081,None,1041.349688000002,None,1042.348679200004,None,1045.762628700002,None,1045.762628700002,None,j,0.41738250000344124,1045.762628700002,None,1046.1953943000117,None,,,,,,,SS91,2022_Mar_06_0953,rdk-discrimination,2021.2.3,59.944635133868026,
none,left,,,,,1,42,122,55,0.014293889995315112,1.0142938899953151,1047.669280800008,None,1048.4767589000112,None,1049.4758106000081,None,1053.4892948000052,None,1053.4892948000052,None,f,0.3594069000100717,1053.4892948000052,None,1053.8719483000023,None,,,,,,,SS91,2022_Mar_06_0953,rdk-discrimination,2021.2.3,59.944635133868026,
none,right,,,,,1,43,123,74,0.014150890012388118,1.0141508900123881,1055.3477436000103,None,1056.1533366000076,None,1057.1524403000076,None,1062.1651158000022,None,1062.1651158000022,None,j,0.3043831999966642,1062.1651158000022,None,1062.4978822999983,None,,,,,,,SS91,2022_Mar_06_0953,rdk-discrimination,2021.2.3,59.944635133868026,
none,left,,,,,1,44,124,49,0.014587289988412522,1.0145872899884125,1063.9727794000064,None,1064.7790946000023,None,1065.77826620001,None,1070.2912448999996,None,1070.2912448999996,None,f,0.3991688999958569,1070.2912448999996,None,1070.707322000002,None,,,,,,,SS91,2022_Mar_06_0953,rdk-discrimination,2021.2.3,59.944635133868026,
right,right,,,,,1,45,125,22,0.013793689984595403,1.0137936899845954,1072.1817803000013,None,1073.388524000009,None,1074.3874821000063,None,1079.3999122000096,None,1079.3999122000096,None,j,0.39495159999933094,1079.3999122000096,None,1079.8161536000116,None,,,,,,,SS91,2022_Mar_06_0953,rdk-discrimination,2021.2.3,59.944635133868026,
none,left,,,,,1,46,126,41,0.01444228999025654,1.0144422899902565,1081.2901628000109,None,1081.647846500011,None,1082.647028300009,None,1086.0608242000017,None,1086.0608242000017,None,f,0.3276023000071291,1086.0608242000017,None,1086.4104264000052,None,,,,,,,SS91,2022_Mar_06_0953,rdk-discrimination,2021.2.3,59.944635133868026,
left,left,,,,,1,47,127,0,0.014429989983909763,1.0144299899839098,1087.8855998000072,None,1088.691620700003,None,1089.6908031000057,None,1094.7032675000082,None,1094.7032675000082,None,f,0.7072217999957502,1094.7032675000082,None,1095.4358953000046,None,,,,,,,SS91,2022_Mar_06_0953,rdk-discrimination,2021.2.3,59.944635133868026,
none,right,,,,,1,48,128,77,0.013712390005821362,1.0137123900058214,1096.9104506000003,None,1097.267580300002,None,1098.2666505000088,None,1102.2799516000086,None,1102.2799516000086,None,j,0.3337653000053251,1102.2799516000086,None,1102.6295074000082,None,,,,,,,SS91,2022_Mar_06_0953,rdk-discrimination,2021.2.3,59.944635133868026,
left,left,,,,,1,49,129,13,0.013862889987649396,1.0138628899876494,1104.1058843000064,None,1105.3104725000012,None,1106.309519100003,None,1110.3230730000068,None,1110.3230730000068,None,f,0.7241232000087621,1110.3230730000068,None,1111.0722029000026,None,,,,,,,SS91,2022_Mar_06_0953,rdk-discrimination,2021.2.3,59.944635133868026,
none,left,,,,,1,50,130,42,0.014191390000632964,1.014191390000633,1112.5476359000022,None,1113.3535573000117,None,1114.3526281000086,None,1119.3652321000118,None,1119.3652321000118,None,j,0.31992939999327064,1119.3652321000118,None,1119.714726700011,None,,,,,,,SS91,2022_Mar_06_0953,rdk-discrimination,2021.2.3,59.944635133868026,
left,left,,,,,1,51,131,5,0.014549689993145876,1.0145496899931459,1121.1894994000031,None,1122.3957515000075,None,1123.394769999999,None,1127.4079740000016,None,1127.4079740000016,None,f,0.30941030000394676,1127.4079740000016,None,1127.7410189000075,None,,,,,,,SS91,2022_Mar_06_0953,rdk-discrimination,2021.2.3,59.944635133868026,
none,right,,,,,1,52,132,64,0.014588089979952201,1.0145880899799522,1129.2157617000048,None,1130.0224809000065,None,1131.0214399000106,None,1136.0338553000038,None,1136.0338553000038,None,f,0.3030097000009846,1136.0338553000038,None,1136.3666901000106,None,,,,,,,SS91,2022_Mar_06_0953,rdk-discrimination,2021.2.3,59.944635133868026,
left,right,,,,,1,53,133,34,0.014377790008438751,1.0143777900084388,1137.8432921000058,None,1138.6482204000058,None,1139.6472299000015,None,1144.659691599998,None,1144.659691599998,None,f,0.46383269999932963,1144.659691599998,None,1145.1426272000099,None,,,,,,,SS91,2022_Mar_06_0953,rdk-discrimination,2021.2.3,59.944635133868026,
right,right,,,,,1,54,134,26,0.014590689999749884,1.0145906899997499,1146.6170608000102,None,1147.8235226000106,None,1148.8226018999994,None,1152.2364780000062,None,1152.2364780000062,None,j,0.4427055999985896,1152.2364780000062,None,1152.702524200009,None,,,,,,,SS91,2022_Mar_06_0953,rdk-discrimination,2021.2.3,59.944635133868026,
none,right,,,,,1,55,135,75,0.013936090006609447,1.0139360900066094,1154.1788321000058,None,1155.3836870000086,None,1156.3826062000007,None,1159.7965212999989,None,1159.7965212999989,None,j,0.9321242000005441,1159.7965212999989,None,1160.7456375000038,None,,,,,,,SS91,2022_Mar_06_0953,rdk-discrimination,2021.2.3,59.944635133868026,
right,left,,,,,1,56,136,39,0.014795989991398528,1.0147959899913985,1162.2219082000083,None,1163.4266031000006,None,1164.4257385000092,None,1168.4389389999997,None,1168.4389389999997,None,j,0.5824081000027945,1168.4389389999997,None,1169.0381446000101,None,,,,,,,SS91,2022_Mar_06_0953,rdk-discrimination,2021.2.3,59.944635133868026,
left,left,,,,,1,57,137,1,0.013959590010927059,1.013959590010927,1170.5130602999998,None,1171.3195985000057,None,1172.318791800004,None,1175.7326009000099,None,1175.7326009000099,None,f,0.3507106000033673,1175.7326009000099,None,1176.0987190000014,None,,,,,,,SS91,2022_Mar_06_0953,rdk-discrimination,2021.2.3,59.944635133868026,
right,left,,,,,1,58,138,38,0.01357648998964578,1.0135764899896458,1177.5748134000023,None,1178.380255000011,None,1179.3792831000028,None,1184.3917726000072,None,1184.3917726000072,None,j,0.2893062000075588,1184.3917726000072,None,1184.7080400999985,None,,,,,,,SS91,2022_Mar_06_0953,rdk-discrimination,2021.2.3,59.944635133868026,
left,left,,,,,1,59,139,6,0.014577389985788614,1.0145773899857886,1186.1824391000118,None,1186.2898000999994,None,1187.2890723000019,None,1192.3016370000114,None,1192.3016370000114,None,f,0.6631261000002269,1192.3016370000114,None,1192.9841809000063,None,,,,,,,SS91,2022_Mar_06_0953,rdk-discrimination,2021.2.3,59.944635133868026,
right,right,,,,,1,60,140,17,0.01414908999868203,1.014149089998682,1194.4593199000083,None,1195.6652149000001,None,1196.664420400004,None,1200.0781313000043,None,1200.0781313000043,None,j,0.2921918000065489,1200.0781313000043,None,1200.3941911000002,None,,,,,,,SS91,2022_Mar_06_0953,rdk-discrimination,2021.2.3,59.944635133868026,
none,left,,,,,1,61,141,43,0.014493290000245906,1.014493290000246,1201.868632400001,None,1202.675664800001,None,1203.6747029000107,None,1208.1877160000004,None,1208.1877160000004,None,j,0.3245249000028707,1208.1877160000004,None,1208.5372143999994,None,,,,,,,SS91,2022_Mar_06_0953,rdk-discrimination,2021.2.3,59.944635133868026,
none,right,,,,,1,62,142,65,0.014132690004771575,1.0141326900047716,1210.012116400001,None,1210.1191972000088,None,1211.11822270001,None,1215.1318113000016,None,1215.1318113000016,None,f,0.3870353999955114,1215.1318113000016,None,1215.5476475000032,None,,,,,,,SS91,2022_Mar_06_0953,rdk-discrimination,2021.2.3,59.944635133868026,
none,left,,,,,1,63,143,58,0.014287389989476651,1.0142873899894767,1217.023290000012,None,1217.8291778999992,None,1218.828299300003,None,1222.841655600001,None,1222.841655600001,None,j,0.29518800000369083,1222.841655600001,None,1223.1579869000125,None,,,,,,,SS91,2022_Mar_06_0953,rdk-discrimination,2021.2.3,59.944635133868026,
none,right,,,,,1,64,144,60,0.014388889991096221,1.0143888899910962,1224.6321737000108,None,1225.8390362000064,None,1226.837889100003,None,1231.8504599000007,None,1231.8504599000007,None,j,0.40575730000273325,1231.8504599000007,None,1232.2832580000104,None,,,,,,,SS91,2022_Mar_06_0953,rdk-discrimination,2021.2.3,59.944635133868026,
left,left,,,,,1,65,145,3,0.014211689995136112,1.0142116899951361,1233.7579999000009,None,1234.1150063000096,None,1235.1140340999991,None,1239.1274013000075,None,1239.1274013000075,None,f,0.3957354000012856,1239.1274013000075,None,1239.5435364000004,None,,,,,,,SS91,2022_Mar_06_0953,rdk-discrimination,2021.2.3,59.944635133868026,
none,left,,,,,1,66,146,53,0.013963389996206388,1.0139633899962064,1241.0185644000012,None,1241.824961300008,None,1242.8240341000055,None,1246.2380142000038,None,1246.2380142000038,None,j,0.4323402000009082,1246.2380142000038,None,1246.6872646999982,None,,,,,,,SS91,2022_Mar_06_0953,rdk-discrimination,2021.2.3,59.944635133868026,
right,right,,,,,1,67,147,19,0.0145793900010176,1.0145793900010176,1248.1623688000109,None,1248.51912550001,None,1249.5180940999999,None,1254.5304589000007,None,1254.5304589000007,None,j,0.38556080000125803,1254.5304589000007,None,1254.946735400008,None,,,,,,,SS91,2022_Mar_06_0953,rdk-discrimination,2021.2.3,59.944635133868026,
none,left,,,,,1,68,148,57,0.014228789994376712,1.0142287899943767,1256.4212963000027,None,1256.5286975000054,None,1257.5277552000043,None,1262.0408035,None,1262.0408035,None,j,0.38988940000126604,1262.0408035,None,1262.4568609999988,None,,,,,,,SS91,2022_Mar_06_0953,rdk-discrimination,2021.2.3,59.944635133868026,
left,right,,,,,1,69,149,32,0.014010689992574044,1.014010689992574,1263.9320029000082,None,1265.1379345000023,None,1266.1369019999984,None,1269.5509644999984,None,1269.5509644999984,None,f,0.3979782999958843,1269.5509644999984,None,1269.9671117000107,None,,,,,,,SS91,2022_Mar_06_0953,rdk-discrimination,2021.2.3,59.944635133868026,
none,left,,,,,1,70,150,48,0.014623189985286444,1.0146231899852864,1271.4408154999983,None,1271.7991761000012,None,1272.7978236000054,None,1276.8111752000113,None,1276.8111752000113,None,j,0.3361523999919882,1276.8111752000113,None,1277.1773098999984,None,,,,,,,SS91,2022_Mar_06_0953,rdk-discrimination,2021.2.3,59.944635133868026,
left,left,,,,,1,71,151,15,0.01438448998669628,1.0143844899866963,1278.6521729000087,None,1279.0092125000083,None,1280.0082700000057,None,1285.0207391000004,None,1285.0207391000004,None,f,0.35187490000680555,1285.0207391000004,None,1285.4035934999993,None,,,,,,,SS91,2022_Mar_06_0953,rdk-discrimination,2021.2.3,59.944635133868026,
left,left,,,,,1,72,152,14,0.01375189000100363,1.0137518900010036,1286.8788370000111,None,1287.2353198000055,None,1288.2343928000046,None,1292.2477201000002,None,1292.2477201000002,None,f,0.4418303999991622,1292.2477201000002,None,1292.71386660001,None,,,,,,,SS91,2022_Mar_06_0953,rdk-discrimination,2021.2.3,59.944635133868026,
none,right,,,,,1,73,153,76,0.014161390005028807,1.0141613900050288,1294.1887510000088,None,1294.9951603000081,None,1295.9942164000095,None,1301.0068132000015,None,1301.0068132000015,None,j,0.33824189999722876,1301.0068132000015,None,1301.3745622999995,None,,,,,,,SS91,2022_Mar_06_0953,rdk-discrimination,2021.2.3,59.944635133868026,
none,left,,,,,1,74,154,52,0.014184390005539171,1.0141843900055392,1302.8662918000045,None,1304.070586700007,None,1305.0697686000058,None,1308.483620900006,None,1308.483620900006,None,f,0.3554701999964891,1308.483620900006,None,1308.8664088000078,None,,,,,,,SS91,2022_Mar_06_0953,rdk-discrimination,2021.2.3,59.944635133868026,
left,left,,,,,1,75,155,9,0.014471689981292002,1.014471689981292,1310.340376799999,None,1311.1477968000108,None,1312.1467953000101,None,1315.5607573000016,None,1315.5607573000016,None,f,0.6207087999937357,1315.5607573000016,None,1316.210027500012,None,,,,,,,SS91,2022_Mar_06_0953,rdk-discrimination,2021.2.3,59.944635133868026,
right,right,,,,,1,76,156,24,0.014510089997202158,1.0145100899972022,1317.6842822000035,None,1318.891076400003,None,1319.8901471999998,None,1324.40302160001,None,1324.40302160001,None,j,0.39811870000266936,1324.40302160001,None,1324.8191654000111,None,,,,,,,SS91,2022_Mar_06_0953,rdk-discrimination,2021.2.3,59.944635133868026,
none,left,,,,,1,77,157,47,0.014314590007415973,1.014314590007416,1326.2938944000052,None,1326.4012271000101,None,1327.4001671000005,None,1331.4135419000086,None,1331.4135419000086,None,j,0.6295430999889504,1331.4135419000086,None,1332.0630403000105,None,,,,,,,SS91,2022_Mar_06_0953,rdk-discrimination,2021.2.3,59.944635133868026,
right,right,,,,,1,78,158,25,0.01443278999067843,1.0144327899906784,1333.5374900000024,None,1334.3442634000094,None,1335.3432234000065,None,1340.3560110000108,None,1340.3560110000108,None,j,0.2762397000042256,1340.3560110000108,None,1340.655479500012,None,,,,,,,SS91,2022_Mar_06_0953,rdk-discrimination,2021.2.3,59.944635133868026,
none,right,,,,,1,79,159,69,0.014532190005411394,1.0145321900054114,1342.1299225000112,None,1342.4871566000074,None,1343.4862064000044,None,1347.4996650000103,None,1347.4996650000103,None,j,0.4665391000016825,1347.4996650000103,None,1347.9823957000044,None,,,,,,,SS91,2022_Mar_06_0953,rdk-discrimination,2021.2.3,59.944635133868026,
