trial,ID,cue,direction,response,rt,choice,correct,condition,mean_C,sd_C,trial_type
1,chch04,left,left,0,0.3984758740043617,left,1,valid,0.7345113326619624,0.2437698370620411,OK
2,chch04,left,left,0,0.47943379100615857,left,1,valid,0.7345113326619624,0.2437698370620411,OK
3,chch04,left,left,1,0.5911643740037107,right,0,valid,0.7345113326619624,0.2437698370620411,OK
4,chch04,right,left,0,0.44720166600018274,left,1,invalid,0.7537437478937564,0.24844249026586113,OK
5,chch04,none,left,0,0.4702366659985273,left,1,neutral,0.7716613956494428,0.2299563121835134,OK
6,chch04,left,left,0,0.5163034990036977,left,1,valid,0.7345113326619624,0.2437698370620411,OK
7,chch04,right,left,0,0.49795095800072886,left,1,invalid,0.7537437478937564,0.24844249026586113,OK
8,chch04,left,left,0,0.5254715410046629,left,1,valid,0.7345113326619624,0.2437698370620411,OK
9,chch04,none,left,0,0.4937032489979174,left,1,neutral,0.7716613956494428,0.2299563121835134,OK
10,chch04,none,right,0,0.4355022500021733,left,0,neutral,0.7716613956494428,0.2299563121835134,OK
11,chch04,left,left,0,0.6299002910018316,left,1,valid,0.7345113326619624,0.2437698370620411,OK
12,chch04,left,left,0,0.4049147490004543,left,1,valid,0.7345113326619624,0.2437698370620411,OK
13,chch04,none,right,1,0.6957283329975326,right,1,neutral,0.7716613956494428,0.2299563121835134,OK
14,chch04,none,left,0,0.4181991250006831,left,1,neutral,0.7716613956494428,0.2299563121835134,OK
15,chch04,right,right,1,0.4780652069966891,right,1,valid,0.7345113326619624,0.2437698370620411,OK
16,chch04,none,left,0,0.46305849900090834,left,1,neutral,0.7716613956494428,0.2299563121835134,OK
17,chch04,none,left,0,0.4921101660002023,left,1,neutral,0.7716613956494428,0.2299563121835134,OK
18,chch04,none,right,0,0.4564954990055412,left,0,neutral,0.7716613956494428,0.2299563121835134,OK
19,chch04,left,right,1,0.5838911249957164,right,1,invalid,0.7537437478937564,0.24844249026586113,OK
20,chch04,right,left,1,0.5413540820009075,right,0,invalid,0.7537437478937564,0.24844249026586113,OK
21,chch04,right,right,1,0.5193080829994869,right,1,valid,0.7345113326619624,0.2437698370620411,OK
22,chch04,left,left,1,0.5690779159995145,right,0,valid,0.7345113326619624,0.2437698370620411,OK
23,chch04,left,right,1,0.5245002490046318,right,1,invalid,0.7537437478937564,0.24844249026586113,OK
24,chch04,right,right,1,0.5617350410029758,right,1,valid,0.7345113326619624,0.2437698370620411,OK
25,chch04,none,right,1,0.6387828329970944,right,1,neutral,0.7716613956494428,0.2299563121835134,OK
26,chch04,none,left,0,0.4536304989960626,left,1,neutral,0.7716613956494428,0.2299563121835134,OK
27,chch04,none,right,1,0.5311515409994172,right,1,neutral,0.7716613956494428,0.2299563121835134,OK
28,chch04,none,right,1,0.6859762910025893,right,1,neutral,0.7716613956494428,0.2299563121835134,OK
29,chch04,left,left,0,0.5363560409969068,left,1,valid,0.7345113326619624,0.2437698370620411,OK
30,chch04,left,left,1,0.69795212399913,right,0,valid,0.7345113326619624,0.2437698370620411,OK
31,chch04,left,left,0,0.9884854990013991,left,1,valid,0.7345113326619624,0.2437698370620411,OK
32,chch04,none,right,1,0.5518122079956811,right,1,neutral,0.7716613956494428,0.2299563121835134,OK
33,chch04,right,right,1,0.6297970830055419,right,1,valid,0.7345113326619624,0.2437698370620411,OK
34,chch04,right,right,0,0.649018916003115,left,0,valid,0.7345113326619624,0.2437698370620411,OK
35,chch04,right,right,1,0.544434873998398,right,1,valid,0.7345113326619624,0.2437698370620411,OK
36,chch04,right,right,1,0.9215561660021194,right,1,valid,0.7345113326619624,0.2437698370620411,OK
37,chch04,none,left,0,0.6238952490020893,left,1,neutral,0.7716613956494428,0.2299563121835134,OK
38,chch04,right,right,1,0.6217615820060018,right,1,valid,0.7345113326619624,0.2437698370620411,OK
39,chch04,right,left,0,0.5107641249996959,left,1,invalid,0.7537437478937564,0.24844249026586113,OK
40,chch04,left,left,0,0.5276316239978769,left,1,valid,0.7345113326619624,0.2437698370620411,OK
41,chch04,none,right,1,0.6600740409994614,right,1,neutral,0.7716613956494428,0.2299563121835134,OK
42,chch04,none,left,0,0.5461125829970115,left,1,neutral,0.7716613956494428,0.2299563121835134,OK
43,chch04,right,right,1,0.49859474900586065,right,1,valid,0.7345113326619624,0.2437698370620411,OK
44,chch04,none,left,0,0.7088285409990931,left,1,neutral,0.7716613956494428,0.2299563121835134,OK
45,chch04,none,left,0,0.5962282500040601,left,1,neutral,0.7716613956494428,0.2299563121835134,OK
46,chch04,none,right,0,0.5656338740009232,left,0,neutral,0.7716613956494428,0.2299563121835134,OK
47,chch04,left,left,0,0.6269130829969072,left,1,valid,0.7345113326619624,0.2437698370620411,OK
48,chch04,none,right,1,0.6460213329992257,right,1,neutral,0.7716613956494428,0.2299563121835134,OK
49,chch04,none,right,1,0.5391729569964809,right,1,neutral,0.7716613956494428,0.2299563121835134,OK
50,chch04,left,left,0,0.4608615410033962,left,1,valid,0.7345113326619624,0.2437698370620411,OK
51,chch04,none,right,1,0.5492824989996734,right,1,neutral,0.7716613956494428,0.2299563121835134,OK
52,chch04,none,right,1,0.6025532069979818,right,1,neutral,0.7716613956494428,0.2299563121835134,OK
53,chch04,none,left,0,0.596061374002602,left,1,neutral,0.7716613956494428,0.2299563121835134,OK
54,chch04,none,right,1,0.640640165998775,right,1,neutral,0.7716613956494428,0.2299563121835134,OK
55,chch04,right,right,1,0.6813234159999411,right,1,valid,0.7345113326619624,0.2437698370620411,OK
56,chch04,none,left,0,0.4241522910015192,left,1,neutral,0.7716613956494428,0.2299563121835134,OK
57,chch04,left,left,0,0.6182183740020264,left,1,valid,0.7345113326619624,0.2437698370620411,OK
58,chch04,none,left,0,0.5890624989988282,left,1,neutral,0.7716613956494428,0.2299563121835134,OK
59,chch04,left,right,1,0.5196682499954477,right,1,invalid,0.7537437478937564,0.24844249026586113,OK
60,chch04,none,left,0,0.7231667079977342,left,1,neutral,0.7716613956494428,0.2299563121835134,OK
61,chch04,right,right,1,0.44300133199431,right,1,valid,0.7345113326619624,0.2437698370620411,OK
62,chch04,none,left,0,0.5967144160022144,left,1,neutral,0.7716613956494428,0.2299563121835134,OK
63,chch04,none,right,1,0.4711895820000791,right,1,neutral,0.7716613956494428,0.2299563121835134,OK
64,chch04,right,right,1,0.5246630830006325,right,1,valid,0.7345113326619624,0.2437698370620411,OK
65,chch04,none,right,1,0.4653591660025995,right,1,neutral,0.7716613956494428,0.2299563121835134,OK
66,chch04,left,right,1,0.5804146660011611,right,1,invalid,0.7537437478937564,0.24844249026586113,OK
67,chch04,right,right,1,0.6465619160007918,right,1,valid,0.7345113326619624,0.2437698370620411,OK
68,chch04,none,right,0,0.8316412080021109,left,0,neutral,0.7716613956494428,0.2299563121835134,OK
69,chch04,right,right,0,0.5019532070000423,left,0,valid,0.7345113326619624,0.2437698370620411,OK
70,chch04,none,right,1,0.5788978739947197,right,1,neutral,0.7716613956494428,0.2299563121835134,OK
71,chch04,none,left,0,0.543402082999819,left,1,neutral,0.7716613956494428,0.2299563121835134,OK
72,chch04,right,right,1,0.5415765829966404,right,1,valid,0.7345113326619624,0.2437698370620411,OK
73,chch04,right,right,1,0.4951794989974587,right,1,valid,0.7345113326619624,0.2437698370620411,OK
74,chch04,none,left,1,0.6369023329971242,right,0,neutral,0.7716613956494428,0.2299563121835134,OK
75,chch04,none,left,0,0.42835558200022206,left,1,neutral,0.7716613956494428,0.2299563121835134,OK
76,chch04,none,left,0,0.552745416003745,left,1,neutral,0.7716613956494428,0.2299563121835134,OK
77,chch04,none,left,0,0.7255140410052263,left,1,neutral,0.7716613956494428,0.2299563121835134,OK
78,chch04,none,right,1,0.47710916600044584,right,1,neutral,0.7716613956494428,0.2299563121835134,OK
79,chch04,none,right,1,0.5937381240000832,right,1,neutral,0.7716613956494428,0.2299563121835134,OK
80,chch04,left,left,0,0.5030886660024407,left,1,valid,0.7345113326619624,0.2437698370620411,OK
81,chch04,none,right,1,0.6191478319960879,right,1,neutral,0.7716613956494428,0.2299563121835134,OK
82,chch04,left,left,0,0.4297660819938755,left,1,valid,0.7345113326619624,0.2437698370620411,OK
83,chch04,right,right,1,0.5824378739998792,right,1,valid,0.7345113326619624,0.2437698370620411,OK
84,chch04,none,right,1,0.5785366249983781,right,1,neutral,0.7716613956494428,0.2299563121835134,OK
85,chch04,none,left,0,0.5215517489996273,left,1,neutral,0.7716613956494428,0.2299563121835134,OK
86,chch04,left,left,0,0.4346805820023292,left,1,valid,0.7345113326619624,0.2437698370620411,OK
87,chch04,none,right,1,0.5753188739981852,right,1,neutral,0.7716613956494428,0.2299563121835134,OK
88,chch04,left,right,0,0.6386381240008632,left,0,invalid,0.7537437478937564,0.24844249026586113,OK
89,chch04,none,right,1,0.6554064159936388,right,1,neutral,0.7716613956494428,0.2299563121835134,OK
90,chch04,right,right,0,0.6446469160000561,left,0,valid,0.7345113326619624,0.2437698370620411,OK
91,chch04,right,right,1,0.5095554159997846,right,1,valid,0.7345113326619624,0.2437698370620411,OK
92,chch04,none,right,0,0.6098807080052211,left,0,neutral,0.7716613956494428,0.2299563121835134,OK
93,chch04,none,left,0,0.5285585829988122,left,1,neutral,0.7716613956494428,0.2299563121835134,OK
94,chch04,left,left,0,0.4662040410039481,left,1,valid,0.7345113326619624,0.2437698370620411,OK
95,chch04,right,right,1,0.559365291002905,right,1,valid,0.7345113326619624,0.2437698370620411,OK
96,chch04,none,left,0,0.4719682499999181,left,1,neutral,0.7716613956494428,0.2299563121835134,OK
97,chch04,none,left,0,0.561718999997538,left,1,neutral,0.7716613956494428,0.2299563121835134,OK
98,chch04,none,left,0,0.5022067079989938,left,1,neutral,0.7716613956494428,0.2299563121835134,OK
99,chch04,none,right,1,0.7041142489979393,right,1,neutral,0.7716613956494428,0.2299563121835134,OK
100,chch04,none,left,0,0.5336980829961249,left,1,neutral,0.7716613956494428,0.2299563121835134,OK
101,chch04,none,left,0,0.4274546239976189,left,1,neutral,0.7716613956494428,0.2299563121835134,OK
102,chch04,none,right,1,0.6094713330021477,right,1,neutral,0.7716613956494428,0.2299563121835134,OK
103,chch04,left,left,0,0.46331549999740673,left,1,valid,0.7345113326619624,0.2437698370620411,OK
104,chch04,right,left,0,0.4892958739947062,left,1,invalid,0.7537437478937564,0.24844249026586113,OK
105,chch04,none,left,0,0.4964342910025152,left,1,neutral,0.7716613956494428,0.2299563121835134,OK
106,chch04,none,right,1,0.7210734990003402,right,1,neutral,0.7716613956494428,0.2299563121835134,OK
107,chch04,none,right,1,0.6824337069992907,right,1,neutral,0.7716613956494428,0.2299563121835134,OK
108,chch04,none,right,1,0.7082293320054305,right,1,neutral,0.7716613956494428,0.2299563121835134,OK
109,chch04,none,left,0,0.4797287080000387,left,1,neutral,0.7716613956494428,0.2299563121835134,OK
110,chch04,right,right,0,0.5113463750021765,left,0,valid,0.7345113326619624,0.2437698370620411,OK
111,chch04,right,right,1,0.6987323749999632,right,1,valid,0.7345113326619624,0.2437698370620411,OK
112,chch04,right,right,0,0.4599357910046819,left,0,valid,0.7345113326619624,0.2437698370620411,OK
113,chch04,none,right,1,0.6674167079981999,right,1,neutral,0.7716613956494428,0.2299563121835134,OK
114,chch04,left,left,0,0.7040950410009827,left,1,valid,0.7345113326619624,0.2437698370620411,OK
115,chch04,right,right,1,0.6435194160003448,right,1,valid,0.7345113326619624,0.2437698370620411,OK
116,chch04,right,right,0,0.48566599899641005,left,0,valid,0.7345113326619624,0.2437698370620411,OK
117,chch04,none,left,0,0.6304770409988123,left,1,neutral,0.7716613956494428,0.2299563121835134,OK
118,chch04,none,left,0,0.698137666004186,left,1,neutral,0.7716613956494428,0.2299563121835134,OK
119,chch04,none,left,0,0.5212273750003078,left,1,neutral,0.7716613956494428,0.2299563121835134,OK
120,chch04,none,left,1,0.6048067909941892,right,0,neutral,0.7716613956494428,0.2299563121835134,OK
121,chch04,right,right,1,0.6522961660011788,right,1,valid,0.7345113326619624,0.2437698370620411,OK
122,chch04,left,left,0,0.5426355829986278,left,1,valid,0.7345113326619624,0.2437698370620411,OK
123,chch04,none,left,0,0.5492257500009146,left,1,neutral,0.7716613956494428,0.2299563121835134,OK
124,chch04,none,left,0,0.5421294160041725,left,1,neutral,0.7716613956494428,0.2299563121835134,OK
125,chch04,left,left,0,0.5050744990003295,left,1,valid,0.7345113326619624,0.2437698370620411,OK
126,chch04,left,left,0,0.3955713739997009,left,1,valid,0.7345113326619624,0.2437698370620411,OK
127,chch04,none,right,1,0.6284519159962656,right,1,neutral,0.7716613956494428,0.2299563121835134,OK
128,chch04,right,right,1,0.5340245410043281,right,1,valid,0.7345113326619624,0.2437698370620411,OK
129,chch04,none,right,1,0.5025263740026276,right,1,neutral,0.7716613956494428,0.2299563121835134,OK
130,chch04,none,right,1,0.6101842909993138,right,1,neutral,0.7716613956494428,0.2299563121835134,OK
131,chch04,none,left,0,0.5096994570048992,left,1,neutral,0.7716613956494428,0.2299563121835134,OK
132,chch04,left,left,0,0.4796010409991141,left,1,valid,0.7345113326619624,0.2437698370620411,OK
133,chch04,left,left,0,0.4861134579987265,left,1,valid,0.7345113326619624,0.2437698370620411,OK
134,chch04,none,right,0,0.6458745819982141,left,0,neutral,0.7716613956494428,0.2299563121835134,OK
135,chch04,none,right,1,0.44670162400143454,right,1,neutral,0.7716613956494428,0.2299563121835134,OK
136,chch04,left,left,0,0.6112588329997379,left,1,valid,0.7345113326619624,0.2437698370620411,OK
137,chch04,right,right,1,0.5494524579989957,right,1,valid,0.7345113326619624,0.2437698370620411,OK
138,chch04,right,left,0,0.512658375002502,left,1,invalid,0.7537437478937564,0.24844249026586113,OK
139,chch04,left,right,1,0.4974684159969911,right,1,invalid,0.7537437478937564,0.24844249026586113,OK
140,chch04,none,left,0,0.5603113739998662,left,1,neutral,0.7716613956494428,0.2299563121835134,OK
141,chch04,left,left,0,0.4637738330056891,left,1,valid,0.7345113326619624,0.2437698370620411,OK
142,chch04,left,right,1,0.5313961240026401,right,1,invalid,0.7537437478937564,0.24844249026586113,OK
143,chch04,right,right,0,0.5021613330027321,left,0,valid,0.7345113326619624,0.2437698370620411,OK
144,chch04,none,right,1,0.4939688749946072,right,1,neutral,0.7716613956494428,0.2299563121835134,OK
145,chch04,none,left,0,0.4781730830000015,left,1,neutral,0.7716613956494428,0.2299563121835134,OK
146,chch04,none,left,0,0.7929766239976743,left,1,neutral,0.7716613956494428,0.2299563121835134,OK
147,chch04,none,right,1,0.4846315409959061,right,1,neutral,0.7716613956494428,0.2299563121835134,OK
148,chch04,right,left,1,0.6139764990002732,right,0,invalid,0.7537437478937564,0.24844249026586113,OK
149,chch04,left,left,0,0.7105272499975399,left,1,valid,0.7345113326619624,0.2437698370620411,OK
150,chch04,none,right,1,0.47241337400191696,right,1,neutral,0.7716613956494428,0.2299563121835134,OK
151,chch04,none,right,1,0.46615449999808334,right,1,neutral,0.7716613956494428,0.2299563121835134,OK
152,chch04,left,right,1,0.5682002910034498,right,1,invalid,0.7537437478937564,0.24844249026586113,OK
153,chch04,left,left,0,0.5043892500034417,left,1,valid,0.7345113326619624,0.2437698370620411,OK
154,chch04,left,left,0,0.7465027910002391,left,1,valid,0.7345113326619624,0.2437698370620411,OK
155,chch04,right,left,1,0.5175270410036319,right,0,invalid,0.7537437478937564,0.24844249026586113,OK
156,chch04,right,right,1,0.4491472080044332,right,1,valid,0.7345113326619624,0.2437698370620411,OK
157,chch04,right,right,1,0.5025497080059722,right,1,valid,0.7345113326619624,0.2437698370620411,OK
158,chch04,right,right,1,0.5497366659983527,right,1,valid,0.7345113326619624,0.2437698370620411,OK
159,chch04,none,left,0,0.4961033750005299,left,1,neutral,0.7716613956494428,0.2299563121835134,OK
160,chch04,left,left,0,0.5444833750007092,left,1,valid,0.7345113326619624,0.2437698370620411,OK
161,chmi14,none,left,1,1.0336341010406611,right,0,neutral,0.7716613956494428,0.2299563121835134,OK
162,chmi14,left,left,1,1.1442344828974456,right,0,valid,0.7345113326619624,0.2437698370620411,OK
163,chmi14,left,left,0,1.2760984799824655,left,1,valid,0.7345113326619624,0.2437698370620411,OK
164,chmi14,right,right,1,0.7735629130620509,right,1,valid,0.7345113326619624,0.2437698370620411,OK
165,chmi14,none,right,1,1.3854411190841347,right,1,neutral,0.7716613956494428,0.2299563121835134,OK
166,chmi14,left,right,1,1.1862843190319836,right,1,invalid,0.7537437478937564,0.24844249026586113,OK
167,chmi14,left,right,0,0.9517180728726088,left,0,invalid,0.7537437478937564,0.24844249026586113,OK
168,chmi14,none,left,1,1.3228695502039045,right,0,neutral,0.7716613956494428,0.2299563121835134,OK
169,chmi14,none,right,1,0.8475370609667152,right,1,neutral,0.7716613956494428,0.2299563121835134,OK
170,chmi14,none,left,0,0.9294670578092336,left,1,neutral,0.7716613956494428,0.2299563121835134,OK
171,chmi14,left,left,0,1.0280241461005062,left,1,valid,0.7345113326619624,0.2437698370620411,OK
172,chmi14,none,right,0,0.9709417980629952,left,0,neutral,0.7716613956494428,0.2299563121835134,OK
173,chmi14,left,left,0,1.1297918148338797,left,1,valid,0.7345113326619624,0.2437698370620411,OK
174,chmi14,none,left,1,0.9087735018692912,right,0,neutral,0.7716613956494428,0.2299563121835134,OK
175,chmi14,none,right,0,0.91830641007982206,left,0,neutral,0.7716613956494428,0.2299563121835134,OK
176,chmi14,none,right,1,0.842106148134917,right,1,neutral,0.7716613956494428,0.2299563121835134,OK
177,chmi14,right,right,1,0.7100296001881361,right,1,valid,0.7345113326619624,0.2437698370620411,OK
178,chmi14,none,left,0,0.6079809980001301,left,1,neutral,0.7716613956494428,0.2299563121835134,OK
179,chmi14,none,left,1,0.640692553948611,right,0,neutral,0.7716613956494428,0.2299563121835134,OK
180,chmi14,left,left,0,0.7593986801803112,left,1,valid,0.7345113326619624,0.2437698370620411,OK
181,chmi14,none,right,1,0.7050887709483504,right,1,neutral,0.7716613956494428,0.2299563121835134,OK
182,chmi14,left,left,1,0.8346335280220956,right,0,valid,0.7345113326619624,0.2437698370620411,OK
183,chmi14,none,right,1,0.8176820259541273,right,1,neutral,0.7716613956494428,0.2299563121835134,OK
184,chmi14,none,left,1,0.898633228149265,right,0,neutral,0.7716613956494428,0.2299563121835134,OK
185,chmi14,none,right,1,0.8179582010488957,right,1,neutral,0.7716613956494428,0.2299563121835134,OK
186,chmi14,right,right,0,0.777533067157492,left,0,valid,0.7345113326619624,0.2437698370620411,OK
187,chmi14,right,left,0,0.9749869019724428,left,1,invalid,0.7537437478937564,0.24844249026586113,OK
188,chmi14,right,right,1,0.8603640629444271,right,1,valid,0.7345113326619624,0.2437698370620411,OK
189,chmi14,left,left,0,0.8284516118001193,left,1,valid,0.7345113326619624,0.2437698370620411,OK
190,chmi14,left,right,0,1.1891574698965997,left,0,invalid,0.7537437478937564,0.24844249026586113,OK
191,chmi14,left,left,0,1.0825883101206273,left,1,valid,0.7345113326619624,0.2437698370620411,OK
192,chmi14,left,left,1,1.4628893190529195,right,0,valid,0.7345113326619624,0.2437698370620411,OK
193,chmi14,left,left,0,1.407912601949647,left,1,valid,0.7345113326619624,0.2437698370620411,OK
194,chmi14,right,left,0,1.1896614599972963,left,1,invalid,0.7537437478937564,0.24844249026586113,OK
195,chmi14,none,right,0,1.2490251432172954,left,0,neutral,0.7716613956494428,0.2299563121835134,OK
196,chmi14,right,left,0,1.2024593690875918,left,1,invalid,0.7537437478937564,0.24844249026586113,OK
197,chmi14,none,left,1,1.3127763168886304,right,0,neutral,0.7716613956494428,0.2299563121835134,OK
198,chmi14,none,left,1,1.077402993105352,right,0,neutral,0.7716613956494428,0.2299563121835134,OK
199,chmi14,none,left,0,1.2272665528580546,left,1,neutral,0.7716613956494428,0.2299563121835134,OK
200,chmi14,left,left,1,1.1469092008192092,right,0,valid,0.7345113326619624,0.2437698370620411,OK
201,chmi14,none,left,0,1.4123584718909117,left,1,neutral,0.7716613956494428,0.2299563121835134,OK
202,chmi14,right,right,1,0.8269414950627834,right,1,valid,0.7345113326619624,0.2437698370620411,OK
203,chmi14,right,right,1,1.0938237719237804,right,1,valid,0.7345113326619624,0.2437698370620411,OK
204,chmi14,none,right,1,1.1554694399237633,right,1,neutral,0.7716613956494428,0.2299563121835134,OK
205,chmi14,right,right,1,1.062757604988292,right,1,valid,0.7345113326619624,0.2437698370620411,OK
206,chmi14,right,right,1,1.0782441929914055,right,1,valid,0.7345113326619624,0.2437698370620411,OK
207,chmi14,none,right,0,1.274112784070894,left,0,neutral,0.7716613956494428,0.2299563121835134,OK
208,chmi14,left,left,0,1.3183859831187874,left,1,valid,0.7345113326619624,0.2437698370620411,OK
209,chmi14,none,left,0,1.2976446819957346,left,1,neutral,0.7716613956494428,0.2299563121835134,OK
210,chmi14,right,right,1,1.2255103450734168,right,1,valid,0.7345113326619624,0.2437698370620411,OK
211,chmi14,none,left,0,1.3299237340688703,left,1,neutral,0.7716613956494428,0.2299563121835134,OK
212,chmi14,left,left,0,1.4442738671787083,left,1,valid,0.7345113326619624,0.2437698370620411,OK
213,chmi14,right,right,1,1.2871588640846312,right,1,valid,0.7345113326619624,0.2437698370620411,OK
214,chmi14,none,left,0,1.2382882740348575,left,1,neutral,0.7716613956494428,0.2299563121835134,OK
215,chmi14,right,right,0,1.1449549500830472,left,0,valid,0.7345113326619624,0.2437698370620411,OK
216,chmi14,none,right,1,1.3097319430671632,right,1,neutral,0.7716613956494428,0.2299563121835134,OK
217,chmi14,left,left,0,1.2771743868943304,left,1,valid,0.7345113326619624,0.2437698370620411,OK
218,chmi14,right,right,1,1.2422448031138629,right,1,valid,0.7345113326619624,0.2437698370620411,OK
219,chmi14,none,left,0,1.2955557329114529,left,1,neutral,0.7716613956494428,0.2299563121835134,OK
220,chmi14,right,right,0,0.936025246977806,left,0,valid,0.7345113326619624,0.2437698370620411,OK
221,chmi14,right,right,1,1.0043680211529136,right,1,valid,0.7345113326619624,0.2437698370620411,OK
222,chmi14,none,left,0,1.2810841908212751,left,1,neutral,0.7716613956494428,0.2299563121835134,OK
223,chmi14,right,right,1,1.3652371959760785,right,1,valid,0.7345113326619624,0.2437698370620411,OK
224,chmi14,none,right,0,1.3864095769822598,left,0,neutral,0.7716613956494428,0.2299563121835134,OK
225,chmi14,left,left,0,1.4237930460367352,left,1,valid,0.7345113326619624,0.2437698370620411,OK
226,chmi14,left,right,0,1.11140295304358,left,0,invalid,0.7537437478937564,0.24844249026586113,OK
227,chmi14,none,right,1,1.3415115252137184,right,1,neutral,0.7716613956494428,0.2299563121835134,OK
228,chmi14,none,left,0,1.367261660983786,left,1,neutral,0.7716613956494428,0.2299563121835134,OK
229,chmi14,left,left,0,1.143231051042676,left,1,valid,0.7345113326619624,0.2437698370620411,OK
230,chmi14,none,right,1,1.027784196194261,right,1,neutral,0.7716613956494428,0.2299563121835134,OK
231,chmi14,none,right,1,1.2286626170389354,right,1,neutral,0.7716613956494428,0.2299563121835134,OK
232,chmi14,left,right,1,1.2824338409118354,right,1,invalid,0.7537437478937564,0.24844249026586113,OK
233,chmi14,left,left,0,1.2160058279987425,left,1,valid,0.7345113326619624,0.2437698370620411,OK
234,chmi14,left,left,0,1.106901949038729,left,1,valid,0.7345113326619624,0.2437698370620411,OK
235,chmi14,left,left,0,1.2620779199060053,left,1,valid,0.7345113326619624,0.2437698370620411,OK
236,chmi14,left,left,1,1.351021469105035,right,0,valid,0.7345113326619624,0.2437698370620411,OK
237,chmi14,none,right,1,1.0861160079948604,right,1,neutral,0.7716613956494428,0.2299563121835134,OK
238,chmi14,right,left,1,1.190737423952669,right,0,invalid,0.7537437478937564,0.24844249026586113,OK
239,chmi14,right,left,1,1.2543599719647318,right,0,invalid,0.7537437478937564,0.24844249026586113,OK
240,chmi14,right,right,1,1.0393654140643775,right,1,valid,0.7345113326619624,0.2437698370620411,OK
241,chmi14,left,left,1,1.301215189974755,right,0,valid,0.7345113326619624,0.2437698370620411,OK
242,chmi14,right,left,1,1.1217947169207036,right,0,invalid,0.7537437478937564,0.24844249026586113,OK
243,chmi14,right,right,1,0.9039032950531692,right,1,valid,0.7345113326619624,0.2437698370620411,OK
244,chmi14,none,right,1,1.1517206628341228,right,1,neutral,0.7716613956494428,0.2299563121835134,OK
245,chmi14,left,left,0,0.8274575660470873,left,1,valid,0.7345113326619624,0.2437698370620411,OK
246,chmi14,none,right,1,0.7520895709749311,right,1,neutral,0.7716613956494428,0.2299563121835134,OK
247,chmi14,none,left,0,0.9816201149951668,left,1,neutral,0.7716613956494428,0.2299563121835134,OK
248,chmi14,none,left,1,1.0996499699540436,right,0,neutral,0.7716613956494428,0.2299563121835134,OK
249,chmi14,none,left,1,0.8768602651543915,right,0,neutral,0.7716613956494428,0.2299563121835134,OK
250,chmi14,right,right,1,0.8264090940356255,right,1,valid,0.7345113326619624,0.2437698370620411,OK
251,chmi14,left,left,0,1.098204551031813,left,1,valid,0.7345113326619624,0.2437698370620411,OK
252,chmi14,right,left,1,1.1105185190681368,right,0,invalid,0.7537437478937564,0.24844249026586113,OK
253,chmi14,none,left,1,1.167514142114669,right,0,neutral,0.7716613956494428,0.2299563121835134,OK
254,chmi14,left,left,0,1.1851374481339008,left,1,valid,0.7345113326619624,0.2437698370620411,OK
255,chmi14,right,right,1,0.8413343289867043,right,1,valid,0.7345113326619624,0.2437698370620411,OK
256,chmi14,left,right,1,0.8730266951024532,right,1,invalid,0.7537437478937564,0.24844249026586113,OK
257,chmi14,none,left,1,1.0915722458157688,right,0,neutral,0.7716613956494428,0.2299563121835134,OK
258,chmi14,none,left,0,1.3049751061480492,left,1,neutral,0.7716613956494428,0.2299563121835134,OK
259,chmi14,right,right,1,0.8971875600982457,right,1,valid,0.7345113326619624,0.2437698370620411,OK
260,chmi14,none,left,1,1.2604590009432286,right,0,neutral,0.7716613956494428,0.2299563121835134,OK
261,chmi14,none,right,1,1.005576980067417,right,1,neutral,0.7716613956494428,0.2299563121835134,OK
262,chmi14,none,left,1,1.2973751029931009,right,0,neutral,0.7716613956494428,0.2299563121835134,OK
263,chmi14,right,right,1,0.9739154558628798,right,1,valid,0.7345113326619624,0.2437698370620411,OK
264,chmi14,none,left,0,1.168539522914216,left,1,neutral,0.7716613956494428,0.2299563121835134,OK
265,chmi14,none,left,1,1.1886097800452262,right,0,neutral,0.7716613956494428,0.2299563121835134,OK
266,chmi14,none,left,0,1.0257501739542931,left,1,neutral,0.7716613956494428,0.2299563121835134,OK
267,chmi14,left,left,0,1.263284431071952,left,1,valid,0.7345113326619624,0.2437698370620411,OK
268,chmi14,right,right,1,1.187901480123401,right,1,valid,0.7345113326619624,0.2437698370620411,OK
269,chmi14,none,left,0,0.8140438611153513,left,1,neutral,0.7716613956494428,0.2299563121835134,OK
270,chmi14,none,right,1,0.9954610429704188,right,1,neutral,0.7716613956494428,0.2299563121835134,OK
271,chmi14,none,right,1,1.035464792046696,right,1,neutral,0.7716613956494428,0.2299563121835134,OK
272,chmi14,left,left,1,0.9390853738877922,right,0,valid,0.7345113326619624,0.2437698370620411,OK
273,chmi14,none,left,1,1.075037623057142,right,0,neutral,0.7716613956494428,0.2299563121835134,OK
274,chmi14,none,right,1,0.857396470149979,right,1,neutral,0.7716613956494428,0.2299563121835134,OK
275,chmi14,none,right,1,0.8423304201569408,right,1,neutral,0.7716613956494428,0.2299563121835134,OK
276,chmi14,none,right,1,0.7530928361229599,right,1,neutral,0.7716613956494428,0.2299563121835134,OK
277,chmi14,left,right,1,1.2109279329888525,right,1,invalid,0.7537437478937564,0.24844249026586113,OK
278,chmi14,none,right,1,1.192712235962972,right,1,neutral,0.7716613956494428,0.2299563121835134,OK
279,chmi14,left,left,0,1.051165463170037,left,1,valid,0.7345113326619624,0.2437698370620411,OK
280,chmi14,none,right,1,1.0035590468905866,right,1,neutral,0.7716613956494428,0.2299563121835134,OK
281,chmi14,none,right,1,0.9050165060907602,right,1,neutral,0.7716613956494428,0.2299563121835134,OK
282,chmi14,none,right,1,0.8180772981140763,right,1,neutral,0.7716613956494428,0.2299563121835134,OK
283,chmi14,none,right,0,1.0168461629655212,left,0,neutral,0.7716613956494428,0.2299563121835134,OK
284,chmi14,none,right,1,0.9552331038285048,right,1,neutral,0.7716613956494428,0.2299563121835134,OK
285,chmi14,left,left,1,0.9645489798858762,right,0,valid,0.7345113326619624,0.2437698370620411,OK
286,chmi14,left,left,1,0.8532614018768072,right,0,valid,0.7345113326619624,0.2437698370620411,OK
287,chmi14,right,right,0,1.265376083087176,left,0,valid,0.7345113326619624,0.2437698370620411,OK
288,chmi14,none,right,1,1.0163953029550612,right,1,neutral,0.7716613956494428,0.2299563121835134,OK
289,chmi14,none,right,0,1.1430959580466151,left,0,neutral,0.7716613956494428,0.2299563121835134,OK
290,chmi14,none,left,0,1.2913756070192903,left,1,neutral,0.7716613956494428,0.2299563121835134,OK
291,chmi14,left,left,0,0.9559113471768796,left,1,valid,0.7345113326619624,0.2437698370620411,OK
292,chmi14,none,left,1,1.0328890879172832,right,0,neutral,0.7716613956494428,0.2299563121835134,OK
293,chmi14,right,right,1,0.8322162870317698,right,1,valid,0.7345113326619624,0.2437698370620411,OK
294,chmi14,none,left,0,1.1077371430583298,left,1,neutral,0.7716613956494428,0.2299563121835134,OK
295,chmi14,none,left,1,0.7621689320076257,right,0,neutral,0.7716613956494428,0.2299563121835134,OK
296,chmi14,right,right,1,1.2463642288930714,right,1,valid,0.7345113326619624,0.2437698370620411,OK
297,chmi14,right,right,1,0.8938660451676697,right,1,valid,0.7345113326619624,0.2437698370620411,OK
298,chmi14,none,right,1,0.755808083107695,right,1,neutral,0.7716613956494428,0.2299563121835134,OK
299,chmi14,none,right,1,1.2725546499714255,right,1,neutral,0.7716613956494428,0.2299563121835134,OK
300,chmi14,right,right,1,1.1637305428739635,right,1,valid,0.7345113326619624,0.2437698370620411,OK
301,chmi14,right,right,1,1.0798130540642887,right,1,valid,0.7345113326619624,0.2437698370620411,OK
302,chmi14,none,left,1,1.1046853899024427,right,0,neutral,0.7716613956494428,0.2299563121835134,OK
303,chmi14,none,left,1,1.2884004588704556,right,0,neutral,0.7716613956494428,0.2299563121835134,OK
304,chmi14,left,right,1,1.1505780129227787,right,1,invalid,0.7537437478937564,0.24844249026586113,OK
305,chmi14,right,right,1,0.8255951760802418,right,1,valid,0.7345113326619624,0.2437698370620411,OK
306,chmi14,none,left,0,0.8844885861035436,left,1,neutral,0.7716613956494428,0.2299563121835134,OK
307,chmi14,right,right,1,1.1829372278880328,right,1,valid,0.7345113326619624,0.2437698370620411,OK
308,chmi14,none,right,1,1.2392158647999167,right,1,neutral,0.7716613956494428,0.2299563121835134,OK
309,chmi14,left,left,1,0.9911492639221252,right,0,valid,0.7345113326619624,0.2437698370620411,OK
310,J,none,right,1,1.4559301999397576,right,1,neutral,0.7716613956494428,0.2299563121835134,OK
311,J,none,right,0,1.1766152998898178,left,0,neutral,0.7716613956494428,0.2299563121835134,OK
312,J,none,left,0,1.3728529999498278,left,1,neutral,0.7716613956494428,0.2299563121835134,OK
313,J,none,left,1,0.5336285000666976,right,0,neutral,0.7716613956494428,0.2299563121835134,OK
314,J,none,right,1,1.1228519000578672,right,1,neutral,0.7716613956494428,0.2299563121835134,OK
315,J,left,right,1,0.8329201999586076,right,1,invalid,0.7537437478937564,0.24844249026586113,OK
316,J,none,left,0,0.6809872000012547,left,1,neutral,0.7716613956494428,0.2299563121835134,OK
317,J,none,left,0,1.460386599879712,left,1,neutral,0.7716613956494428,0.2299563121835134,OK
318,J,right,right,1,0.7821541000157595,right,1,valid,0.7345113326619624,0.2437698370620411,OK
319,J,right,right,1,0.610454099951312,right,1,valid,0.7345113326619624,0.2437698370620411,OK
320,J,none,left,0,0.6074204999022186,left,1,neutral,0.7716613956494428,0.2299563121835134,OK
321,J,left,left,0,0.514366399962455,left,1,valid,0.7345113326619624,0.2437698370620411,OK
322,J,right,left,0,1.171571800019592,left,1,invalid,0.7537437478937564,0.24844249026586113,OK
323,J,left,left,0,0.90243720007129,left,1,valid,0.7345113326619624,0.2437698370620411,OK
324,J,right,right,1,0.9289470000658184,right,1,valid,0.7345113326619624,0.2437698370620411,OK
325,J,right,right,0,0.6995930999983102,left,0,valid,0.7345113326619624,0.2437698370620411,OK
326,J,right,right,1,0.5386169000994414,right,1,valid,0.7345113326619624,0.2437698370620411,OK
327,J,right,right,0,0.9597750999964774,left,0,valid,0.7345113326619624,0.2437698370620411,OK
328,J,none,right,1,0.48242569994181395,right,1,neutral,0.7716613956494428,0.2299563121835134,OK
329,J,left,left,0,0.643201099941507,left,1,valid,0.7345113326619624,0.2437698370620411,OK
330,J,right,right,0,0.8090970001649112,left,0,valid,0.7345113326619624,0.2437698370620411,OK
331,J,left,left,0,0.6853277999907732,left,1,valid,0.7345113326619624,0.2437698370620411,OK
332,J,none,right,1,0.5941758998669684,right,1,neutral,0.7716613956494428,0.2299563121835134,OK
333,J,none,right,0,0.9027809000108392,left,0,neutral,0.7716613956494428,0.2299563121835134,OK
334,J,none,left,0,0.6556718999054283,left,1,neutral,0.7716613956494428,0.2299563121835134,OK
335,J,left,left,0,0.44817940006032586,left,1,valid,0.7345113326619624,0.2437698370620411,OK
336,J,none,left,0,0.8528110000770539,left,1,neutral,0.7716613956494428,0.2299563121835134,OK
337,J,left,left,0,0.613965000025928,left,1,valid,0.7345113326619624,0.2437698370620411,OK
338,J,none,left,1,0.5409785001538694,right,0,neutral,0.7716613956494428,0.2299563121835134,OK
339,J,right,right,1,0.6425283998250961,right,1,valid,0.7345113326619624,0.2437698370620411,OK
340,J,right,right,1,0.8256288999691606,right,1,valid,0.7345113326619624,0.2437698370620411,OK
341,J,none,right,1,0.636768399970606,right,1,neutral,0.7716613956494428,0.2299563121835134,OK
342,J,none,right,1,0.5240203998982906,right,1,neutral,0.7716613956494428,0.2299563121835134,OK
343,J,right,left,0,0.9386535999365152,left,1,invalid,0.7537437478937564,0.24844249026586113,OK
344,J,none,left,1,0.7731874999590218,right,0,neutral,0.7716613956494428,0.2299563121835134,OK
345,J,left,left,0,0.6903806000482291,left,1,valid,0.7345113326619624,0.2437698370620411,OK
346,J,right,right,0,0.9042728000786155,left,0,valid,0.7345113326619624,0.2437698370620411,OK
347,J,none,right,1,0.4834175000432879,right,1,neutral,0.7716613956494428,0.2299563121835134,OK
348,J,none,left,0,0.645243999781087,left,1,neutral,0.7716613956494428,0.2299563121835134,OK
349,J,none,right,1,1.259416100103408,right,1,neutral,0.7716613956494428,0.2299563121835134,OK
350,J,none,left,0,0.8173003999982029,left,1,neutral,0.7716613956494428,0.2299563121835134,OK
351,J,left,left,1,0.7123887001071125,right,0,valid,0.7345113326619624,0.2437698370620411,OK
352,J,none,left,0,0.6108344001695514,left,1,neutral,0.7716613956494428,0.2299563121835134,OK
353,J,none,left,0,0.8250954002141953,left,1,neutral,0.7716613956494428,0.2299563121835134,OK
354,J,none,right,1,0.5043393999803811,right,1,neutral,0.7716613956494428,0.2299563121835134,OK
355,J,left,left,0,1.0792962000705302,left,1,valid,0.7345113326619624,0.2437698370620411,OK
356,J,left,left,0,0.6614888000767678,left,1,valid,0.7345113326619624,0.2437698370620411,OK
357,J,right,left,0,0.9600893000606447,left,1,invalid,0.7537437478937564,0.24844249026586113,OK
358,J,left,left,0,0.7684220999944955,left,1,valid,0.7345113326619624,0.2437698370620411,OK
359,J,right,right,0,0.8450482001062483,left,0,valid,0.7345113326619624,0.2437698370620411,OK
360,J,none,left,0,0.6790561000816524,left,1,neutral,0.7716613956494428,0.2299563121835134,OK
361,J,left,left,1,0.8933749999850988,right,0,valid,0.7345113326619624,0.2437698370620411,OK
362,J,none,right,1,0.806235000025481,right,1,neutral,0.7716613956494428,0.2299563121835134,OK
363,J,left,left,1,0.826553100021556,right,0,valid,0.7345113326619624,0.2437698370620411,OK
364,J,none,left,0,0.7330185000319034,left,1,neutral,0.7716613956494428,0.2299563121835134,OK
365,J,none,right,1,0.6706131999380887,right,1,neutral,0.7716613956494428,0.2299563121835134,OK
366,J,left,right,1,0.8043965001124889,right,1,invalid,0.7537437478937564,0.24844249026586113,OK
367,J,none,left,1,0.57648629997856915,right,0,neutral,0.7716613956494428,0.2299563121835134,OK
368,J,none,right,1,0.7092370998580009,right,1,neutral,0.7716613956494428,0.2299563121835134,OK
369,J,right,right,1,0.6512394999153912,right,1,valid,0.7345113326619624,0.2437698370620411,OK
370,J,none,right,1,0.596682800212875,right,1,neutral,0.7716613956494428,0.2299563121835134,OK
371,J,left,left,0,0.8474796002265066,left,1,valid,0.7345113326619624,0.2437698370620411,OK
372,J,none,left,0,0.8708097999915481,left,1,neutral,0.7716613956494428,0.2299563121835134,OK
373,J,right,right,0,0.9870834001339972,left,0,valid,0.7345113326619624,0.2437698370620411,OK
374,J,none,left,0,0.929071499966085,left,1,neutral,0.7716613956494428,0.2299563121835134,OK
375,J,none,left,1,0.7060495000332594,right,0,neutral,0.7716613956494428,0.2299563121835134,OK
376,J,left,right,0,0.347305899951607,left,0,invalid,0.7537437478937564,0.24844249026586113,OK
377,J,left,left,1,0.8779802999924868,right,0,valid,0.7345113326619624,0.2437698370620411,OK
378,J,none,right,0,0.7713846999686211,left,0,neutral,0.7716613956494428,0.2299563121835134,OK
379,J,none,right,1,1.4573661999311298,right,1,neutral,0.7716613956494428,0.2299563121835134,OK
380,J,right,right,0,1.3636354999616742,left,0,valid,0.7345113326619624,0.2437698370620411,OK
381,J,none,right,1,0.5442087000701576,right,1,neutral,0.7716613956494428,0.2299563121835134,OK
382,J,right,right,0,0.722075899830088,left,0,valid,0.7345113326619624,0.2437698370620411,OK
383,J,left,right,1,0.5442630001343787,right,1,invalid,0.7537437478937564,0.24844249026586113,OK
384,J,right,left,1,0.6732751000672579,right,0,invalid,0.7537437478937564,0.24844249026586113,OK
385,J,right,right,0,0.6626474999357015,left,0,valid,0.7345113326619624,0.2437698370620411,OK
386,J,none,right,1,0.6205910998396575,right,1,neutral,0.7716613956494428,0.2299563121835134,OK
387,J,right,left,0,0.7034229999408126,left,1,invalid,0.7537437478937564,0.24844249026586113,OK
388,J,none,left,0,0.6818220999557525,left,1,neutral,0.7716613956494428,0.2299563121835134,OK
389,J,right,left,0,0.8996192999184132,left,1,invalid,0.7537437478937564,0.24844249026586113,OK
390,J,none,left,0,0.9660535999573768,left,1,neutral,0.7716613956494428,0.2299563121835134,OK
391,J,none,right,1,0.7527761000674218,right,1,neutral,0.7716613956494428,0.2299563121835134,OK
392,J,right,right,0,0.6597184001002461,left,0,valid,0.7345113326619624,0.2437698370620411,OK
393,J,right,right,1,0.671495399903506,right,1,valid,0.7345113326619624,0.2437698370620411,OK
394,J,left,left,0,0.7113159999717027,left,1,valid,0.7345113326619624,0.2437698370620411,OK
395,J,left,left,1,0.7699476999696344,right,0,valid,0.7345113326619624,0.2437698370620411,OK
396,J,left,left,0,0.7315962999127805,left,1,valid,0.7345113326619624,0.2437698370620411,OK
397,J,left,left,1,0.8654334999155253,right,0,valid,0.7345113326619624,0.2437698370620411,OK
398,J,left,left,0,0.6820228002034128,left,1,valid,0.7345113326619624,0.2437698370620411,OK
399,J,none,right,0,0.5396817999426275,left,0,neutral,0.7716613956494428,0.2299563121835134,OK
400,J,none,right,1,0.5788933001458645,right,1,neutral,0.7716613956494428,0.2299563121835134,OK
401,J,right,right,0,0.8010432000737637,left,0,valid,0.7345113326619624,0.2437698370620411,OK
402,J,none,left,1,0.6927596000023186,right,0,neutral,0.7716613956494428,0.2299563121835134,OK
403,J,none,right,0,0.6291337998118252,left,0,neutral,0.7716613956494428,0.2299563121835134,OK
404,J,none,right,1,0.7552946999203414,right,1,neutral,0.7716613956494428,0.2299563121835134,OK
405,J,right,left,1,0.6958325998857617,right,0,invalid,0.7537437478937564,0.24844249026586113,OK
406,J,left,left,1,1.1307246000505984,right,0,valid,0.7345113326619624,0.2437698370620411,OK
407,J,none,left,1,1.1293008998036385,right,0,neutral,0.7716613956494428,0.2299563121835134,OK
408,J,right,right,1,0.7240516999736428,right,1,valid,0.7345113326619624,0.2437698370620411,OK
409,J,left,left,0,1.0618018999230117,left,1,valid,0.7345113326619624,0.2437698370620411,OK
410,J,none,right,1,0.6077459999360144,right,1,neutral,0.7716613956494428,0.2299563121835134,OK
411,J,left,left,1,1.2145614000037313,right,0,valid,0.7345113326619624,0.2437698370620411,OK
412,J,none,right,1,0.6982172001153231,right,1,neutral,0.7716613956494428,0.2299563121835134,OK
413,J,none,right,1,0.7046004999428988,right,1,neutral,0.7716613956494428,0.2299563121835134,OK
414,J,none,right,1,1.1369125000201166,right,1,neutral,0.7716613956494428,0.2299563121835134,OK
415,J,right,right,1,0.8043529000133276,right,1,valid,0.7345113326619624,0.2437698370620411,OK
416,J,none,left,0,0.7962746999692172,left,1,neutral,0.7716613956494428,0.2299563121835134,OK
417,J,none,left,1,0.558031199965626,right,0,neutral,0.7716613956494428,0.2299563121835134,OK
418,J,right,right,0,0.704310700064525,left,0,valid,0.7345113326619624,0.2437698370620411,OK
419,J,none,right,1,0.5383015999104828,right,1,neutral,0.7716613956494428,0.2299563121835134,OK
420,J,left,left,1,0.6555339999031276,right,0,valid,0.7345113326619624,0.2437698370620411,OK
421,J,none,right,1,0.734366700053215,right,1,neutral,0.7716613956494428,0.2299563121835134,OK
422,J,none,left,0,0.7095995999407023,left,1,neutral,0.7716613956494428,0.2299563121835134,OK
423,J,left,left,1,0.6555044001433998,right,0,valid,0.7345113326619624,0.2437698370620411,OK
424,J,none,left,1,0.5393771000672132,right,0,neutral,0.7716613956494428,0.2299563121835134,OK
425,J,left,left,0,0.9180880999192595,left,1,valid,0.7345113326619624,0.2437698370620411,OK
426,J,left,left,1,0.9317377998959272,right,0,valid,0.7345113326619624,0.2437698370620411,OK
427,J,none,right,1,0.7533040998969227,right,1,neutral,0.7716613956494428,0.2299563121835134,OK
428,J,right,right,1,0.5336277999449521,right,1,valid,0.7345113326619624,0.2437698370620411,OK
429,J,right,right,1,0.6219260001089424,right,1,valid,0.7345113326619624,0.2437698370620411,OK
430,J,right,right,1,0.7023905999958515,right,1,valid,0.7345113326619624,0.2437698370620411,OK
431,J,right,right,1,0.5285618000198156,right,1,valid,0.7345113326619624,0.2437698370620411,OK
432,J,left,right,1,0.6179812999907881,right,1,invalid,0.7537437478937564,0.24844249026586113,OK
433,J,none,left,0,0.914342900039628,left,1,neutral,0.7716613956494428,0.2299563121835134,OK
434,J,none,right,1,0.6465028000529855,right,1,neutral,0.7716613956494428,0.2299563121835134,OK
435,J,none,right,1,0.6290416999254376,right,1,neutral,0.7716613956494428,0.2299563121835134,OK
436,J,none,left,0,0.9427730001043528,left,1,neutral,0.7716613956494428,0.2299563121835134,OK
437,J,left,left,1,0.8335583000443876,right,0,valid,0.7345113326619624,0.2437698370620411,OK
438,J,none,left,0,1.3725521001033485,left,1,neutral,0.7716613956494428,0.2299563121835134,OK
439,J,none,left,1,0.6522363999392837,right,0,neutral,0.7716613956494428,0.2299563121835134,OK
440,J,none,left,1,0.6145818000659347,right,0,neutral,0.7716613956494428,0.2299563121835134,OK
441,J,none,right,1,0.8145597998518497,right,1,neutral,0.7716613956494428,0.2299563121835134,OK
442,J,none,right,1,0.6152326001320034,right,1,neutral,0.7716613956494428,0.2299563121835134,OK
443,J,none,right,1,0.6555719000753015,right,1,neutral,0.7716613956494428,0.2299563121835134,OK
444,J,left,right,1,0.6232151999138296,right,1,invalid,0.7537437478937564,0.24844249026586113,OK
445,J,right,right,1,0.6633139001205564,right,1,valid,0.7345113326619624,0.2437698370620411,OK
446,J,none,left,0,0.7767900999169797,left,1,neutral,0.7716613956494428,0.2299563121835134,OK
447,J,none,left,1,0.5796316000632942,right,0,neutral,0.7716613956494428,0.2299563121835134,OK
448,J,left,left,0,0.6115068001672626,left,1,valid,0.7345113326619624,0.2437698370620411,OK
449,J,right,right,1,0.6052697000559419,right,1,valid,0.7345113326619624,0.2437698370620411,OK
450,J,right,right,1,0.5063841000664979,right,1,valid,0.7345113326619624,0.2437698370620411,OK
451,J,left,left,0,0.7585406999569386,left,1,valid,0.7345113326619624,0.2437698370620411,OK
452,J,none,left,1,0.5463129000272602,right,0,neutral,0.7716613956494428,0.2299563121835134,OK
453,J,left,right,0,0.7282826998271048,left,0,invalid,0.7537437478937564,0.24844249026586113,OK
454,J,none,right,1,0.6889537998940796,right,1,neutral,0.7716613956494428,0.2299563121835134,OK
455,J,none,left,1,0.7643762999214232,right,0,neutral,0.7716613956494428,0.2299563121835134,OK
456,J,none,right,0,0.6149675000924617,left,0,neutral,0.7716613956494428,0.2299563121835134,OK
457,J,none,right,1,0.5818776998203248,right,1,neutral,0.7716613956494428,0.2299563121835134,OK
458,J,right,right,1,1.0494654001668096,right,1,valid,0.7345113326619624,0.2437698370620411,OK
459,J,right,right,1,0.4988688000012189,right,1,valid,0.7345113326619624,0.2437698370620411,OK
460,J,right,left,0,0.7706210999749601,left,1,invalid,0.7537437478937564,0.24844249026586113,OK
461,J,left,right,0,0.9889390000607818,left,0,invalid,0.7537437478937564,0.24844249026586113,OK
462,J,none,left,1,0.41056019999086857,right,0,neutral,0.7716613956494428,0.2299563121835134,OK
463,J,right,right,1,0.6114676999859512,right,1,valid,0.7345113326619624,0.2437698370620411,OK
464,J,none,left,0,0.7764970001298934,left,1,neutral,0.7716613956494428,0.2299563121835134,OK
465,J,none,left,1,1.3258132000919431,right,0,neutral,0.7716613956494428,0.2299563121835134,OK
466,J,left,left,0,0.9020907999947668,left,1,valid,0.7345113326619624,0.2437698370620411,OK
467,jh,none,right,0,0.4482563000055962,left,0,neutral,0.7716613956494428,0.2299563121835134,OK
468,jh,none,right,1,0.6264411000302061,right,1,neutral,0.7716613956494428,0.2299563121835134,OK
469,jh,right,right,1,0.38753589999396354,right,1,valid,0.7345113326619624,0.2437698370620411,OK
470,jh,right,left,1,0.3014561000163667,right,0,invalid,0.7537437478937564,0.24844249026586113,OK
471,jh,left,left,0,0.3698800000129267,left,1,valid,0.7345113326619624,0.2437698370620411,OK
472,jh,right,right,1,0.3576527999830432,right,1,valid,0.7345113326619624,0.2437698370620411,OK
473,jh,left,right,1,0.6975641999742948,right,1,invalid,0.7537437478937564,0.24844249026586113,OK
474,jh,left,left,0,0.3533035999862477,left,1,valid,0.7345113326619624,0.2437698370620411,OK
475,jh,none,right,1,0.5336108000483364,right,1,neutral,0.7716613956494428,0.2299563121835134,OK
476,jh,none,right,1,0.4797614999697544,right,1,neutral,0.7716613956494428,0.2299563121835134,OK
477,jh,none,right,1,0.6458402000134811,right,1,neutral,0.7716613956494428,0.2299563121835134,OK
478,jh,none,left,0,0.4821207000059076,left,1,neutral,0.7716613956494428,0.2299563121835134,OK
479,jh,none,left,0,0.5588163000065833,left,1,neutral,0.7716613956494428,0.2299563121835134,OK
480,jh,none,left,0,0.48420880001503974,left,1,neutral,0.7716613956494428,0.2299563121835134,OK
481,jh,right,right,1,0.2740777999861166,right,1,valid,0.7345113326619624,0.2437698370620411,OK
482,jh,left,left,0,0.4013378000236116,left,1,valid,0.7345113326619624,0.2437698370620411,OK
483,jh,none,right,1,0.6383734000264667,right,1,neutral,0.7716613956494428,0.2299563121835134,OK
484,jh,right,right,1,0.327630199957639,right,1,valid,0.7345113326619624,0.2437698370620411,OK
485,jh,left,left,0,0.4490310000255704,left,1,valid,0.7345113326619624,0.2437698370620411,OK
486,jh,none,right,0,0.7667251999955624,left,0,neutral,0.7716613956494428,0.2299563121835134,OK
487,jh,none,right,1,0.5561387999914587,right,1,neutral,0.7716613956494428,0.2299563121835134,OK
488,jh,right,right,1,0.33605760004138574,right,1,valid,0.7345113326619624,0.2437698370620411,OK
489,jh,none,right,0,0.4523969999863766,left,0,neutral,0.7716613956494428,0.2299563121835134,OK
490,jh,none,right,0,0.4919944999855943,left,0,neutral,0.7716613956494428,0.2299563121835134,OK
491,jh,left,left,0,0.3823825999861583,left,1,valid,0.7345113326619624,0.2437698370620411,OK
492,jh,none,right,1,0.5063312000129372,right,1,neutral,0.7716613956494428,0.2299563121835134,OK
493,jh,none,left,0,0.568257899954915,left,1,neutral,0.7716613956494428,0.2299563121835134,OK
494,jh,left,left,0,0.48287849995540455,left,1,valid,0.7345113326619624,0.2437698370620411,OK
495,jh,none,left,1,0.7220260000322014,right,0,neutral,0.7716613956494428,0.2299563121835134,OK
496,jh,right,right,1,0.5010510999709368,right,1,valid,0.7345113326619624,0.2437698370620411,OK
497,jh,left,left,0,0.2658483000122942,left,1,valid,0.7345113326619624,0.2437698370620411,OK
498,jh,left,left,0,0.49302009999519214,left,1,valid,0.7345113326619624,0.2437698370620411,OK
499,jh,right,right,1,0.4244090999709442,right,1,valid,0.7345113326619624,0.2437698370620411,OK
500,jh,none,left,0,0.49789349996717647,left,1,neutral,0.7716613956494428,0.2299563121835134,OK
501,jh,right,right,1,0.5192967000184581,right,1,valid,0.7345113326619624,0.2437698370620411,OK
502,jh,none,right,0,0.4398239000001922,left,0,neutral,0.7716613956494428,0.2299563121835134,OK
503,jh,right,right,1,0.4671824999968522,right,1,valid,0.7345113326619624,0.2437698370620411,OK
504,jh,left,left,0,0.500279399973806,left,1,valid,0.7345113326619624,0.2437698370620411,OK
505,jh,none,left,1,0.5790777999791317,right,0,neutral,0.7716613956494428,0.2299563121835134,OK
506,jh,left,left,0,0.40341289999196306,left,1,valid,0.7345113326619624,0.2437698370620411,OK
507,jh,none,right,1,0.5167710999958217,right,1,neutral,0.7716613956494428,0.2299563121835134,OK
508,jh,none,left,0,0.4214630000060424,left,1,neutral,0.7716613956494428,0.2299563121835134,OK
509,jh,none,left,0,0.4626635999884456,left,1,neutral,0.7716613956494428,0.2299563121835134,OK
510,jh,none,left,0,0.5254978999728337,left,1,neutral,0.7716613956494428,0.2299563121835134,OK
511,jh,none,left,1,0.4005315000540577,right,0,neutral,0.7716613956494428,0.2299563121835134,OK
512,jh,none,left,0,0.5119639000040479,left,1,neutral,0.7716613956494428,0.2299563121835134,OK
513,jh,none,right,1,0.5627886999864131,right,1,neutral,0.7716613956494428,0.2299563121835134,OK
514,jh,none,left,1,0.547715499997139,right,0,neutral,0.7716613956494428,0.2299563121835134,OK
515,jh,none,right,0,0.4792756999959238,left,0,neutral,0.7716613956494428,0.2299563121835134,OK
516,jh,none,left,0,0.5494351999950595,left,1,neutral,0.7716613956494428,0.2299563121835134,OK
517,jh,none,left,0,0.5524569999543019,left,1,neutral,0.7716613956494428,0.2299563121835134,OK
518,jh,left,left,0,0.283768399967812,left,1,valid,0.7345113326619624,0.2437698370620411,OK
519,jh,right,left,1,0.31685290002496913,right,0,invalid,0.7537437478937564,0.24844249026586113,OK
520,jh,none,right,1,0.5413625999935903,right,1,neutral,0.7716613956494428,0.2299563121835134,OK
521,jh,right,right,1,0.5550197000266053,right,1,valid,0.7345113326619624,0.2437698370620411,OK
522,jh,none,left,0,0.7326738000265323,left,1,neutral,0.7716613956494428,0.2299563121835134,OK
523,jh,none,left,0,0.863290999957826,left,1,neutral,0.7716613956494428,0.2299563121835134,OK
524,jh,right,left,1,0.32202339998912066,right,0,invalid,0.7537437478937564,0.24844249026586113,OK
525,jh,left,right,0,0.4454017999814823,left,0,invalid,0.7537437478937564,0.24844249026586113,OK
526,jh,left,left,0,0.370039600005839,left,1,valid,0.7345113326619624,0.2437698370620411,OK
527,jh,right,left,1,0.48740499996347353,right,0,invalid,0.7537437478937564,0.24844249026586113,OK
528,jh,left,right,1,0.6996485000126995,right,1,invalid,0.7537437478937564,0.24844249026586113,OK
529,jh,none,left,0,1.0129891999531535,left,1,neutral,0.7716613956494428,0.2299563121835134,OK
530,jh,right,right,1,0.5863699999754317,right,1,valid,0.7345113326619624,0.2437698370620411,OK
531,jh,none,right,1,0.8325669999467209,right,1,neutral,0.7716613956494428,0.2299563121835134,OK
532,jh,right,right,1,0.4782894999952987,right,1,valid,0.7345113326619624,0.2437698370620411,OK
533,jh,right,right,1,0.5321750000002794,right,1,valid,0.7345113326619624,0.2437698370620411,OK
534,jh,left,left,0,0.44569300004513934,left,1,valid,0.7345113326619624,0.2437698370620411,OK
535,jh,none,left,0,0.6057847000192851,left,1,neutral,0.7716613956494428,0.2299563121835134,OK
536,jh,none,right,0,0.4250514999730513,left,0,neutral,0.7716613956494428,0.2299563121835134,OK
537,jh,none,right,1,0.6734824000159279,right,1,neutral,0.7716613956494428,0.2299563121835134,OK
538,jh,none,right,1,0.8313840000191703,right,1,neutral,0.7716613956494428,0.2299563121835134,OK
539,jh,none,left,0,1.026483800029382,left,1,neutral,0.7716613956494428,0.2299563121835134,OK
540,jh,right,right,1,0.45374620001530275,right,1,valid,0.7345113326619624,0.2437698370620411,OK
541,jh,left,left,0,0.48542749998159707,left,1,valid,0.7345113326619624,0.2437698370620411,OK
542,jh,left,left,0,0.5946147999493405,left,1,valid,0.7345113326619624,0.2437698370620411,OK
543,jh,left,left,0,0.7700250000343658,left,1,valid,0.7345113326619624,0.2437698370620411,OK
544,jh,right,right,1,0.4490519000100903,right,1,valid,0.7345113326619624,0.2437698370620411,OK
545,jh,left,right,0,0.3353460999787785,left,0,invalid,0.7537437478937564,0.24844249026586113,OK
546,jh,right,right,1,0.5123630999587476,right,1,valid,0.7345113326619624,0.2437698370620411,OK
547,jh,left,left,0,0.3864127999986522,left,1,valid,0.7345113326619624,0.2437698370620411,OK
548,jh,left,left,0,0.44839600002160296,left,1,valid,0.7345113326619624,0.2437698370620411,OK
549,jh,none,right,1,0.6614880999550223,right,1,neutral,0.7716613956494428,0.2299563121835134,OK
550,jh,none,left,1,0.5133534000487998,right,0,neutral,0.7716613956494428,0.2299563121835134,OK
551,jh,right,right,1,0.4460279999766499,right,1,valid,0.7345113326619624,0.2437698370620411,OK
552,jh,none,left,0,0.6936893999809399,left,1,neutral,0.7716613956494428,0.2299563121835134,OK
553,jh,left,right,0,0.35946120001608506,left,0,invalid,0.7537437478937564,0.24844249026586113,OK
554,jh,right,right,1,0.40434920002007857,right,1,valid,0.7345113326619624,0.2437698370620411,OK
555,jh,none,right,1,0.521969800000079,right,1,neutral,0.7716613956494428,0.2299563121835134,OK
556,jh,left,left,0,0.35220269998535514,left,1,valid,0.7345113326619624,0.2437698370620411,OK
557,jh,none,left,0,0.4094884000369347,left,1,neutral,0.7716613956494428,0.2299563121835134,OK
558,jh,none,left,0,0.5471871000481769,left,1,neutral,0.7716613956494428,0.2299563121835134,OK
559,jh,right,right,1,0.28276940004434437,right,1,valid,0.7345113326619624,0.2437698370620411,OK
560,jh,none,right,1,0.593121699988842,right,1,neutral,0.7716613956494428,0.2299563121835134,OK
561,jh,left,left,0,0.4330622999696061,left,1,valid,0.7345113326619624,0.2437698370620411,OK
562,jh,none,left,0,0.5243223999859765,left,1,neutral,0.7716613956494428,0.2299563121835134,OK
563,jh,right,left,1,0.3184317999985069,right,0,invalid,0.7537437478937564,0.24844249026586113,OK
564,jh,right,right,1,0.32441219995962456,right,1,valid,0.7345113326619624,0.2437698370620411,OK
565,jh,none,right,0,0.475791200005915,left,0,neutral,0.7716613956494428,0.2299563121835134,OK
566,jh,left,left,0,0.4412838999996893,left,1,valid,0.7345113326619624,0.2437698370620411,OK
567,jh,right,left,0,0.5338989999727346,left,1,invalid,0.7537437478937564,0.24844249026586113,OK
568,jh,none,right,1,0.7269241000176407,right,1,neutral,0.7716613956494428,0.2299563121835134,OK
569,jh,none,left,0,0.4743946000235155,left,1,neutral,0.7716613956494428,0.2299563121835134,OK
570,jh,none,right,1,0.4890450999955646,right,1,neutral,0.7716613956494428,0.2299563121835134,OK
571,jh,none,left,0,0.5479703000164591,left,1,neutral,0.7716613956494428,0.2299563121835134,OK
572,jh,none,right,0,0.5342099000117742,left,0,neutral,0.7716613956494428,0.2299563121835134,OK
573,jh,none,right,1,0.5404872000217438,right,1,neutral,0.7716613956494428,0.2299563121835134,OK
574,jh,left,right,1,0.5653212000033818,right,1,invalid,0.7537437478937564,0.24844249026586113,OK
575,jh,left,left,0,0.6173353999620304,left,1,valid,0.7345113326619624,0.2437698370620411,OK
576,jh,none,left,0,0.6170161999762058,left,1,neutral,0.7716613956494428,0.2299563121835134,OK
577,jh,none,left,0,0.6286859999527223,left,1,neutral,0.7716613956494428,0.2299563121835134,OK
578,jh,none,left,0,0.5672280000289902,left,1,neutral,0.7716613956494428,0.2299563121835134,OK
579,jh,none,right,0,0.4954173999722116,left,0,neutral,0.7716613956494428,0.2299563121835134,OK
580,jh,left,left,0,0.5141125000081956,left,1,valid,0.7345113326619624,0.2437698370620411,OK
581,jh,none,right,1,0.5913575000013225,right,1,neutral,0.7716613956494428,0.2299563121835134,OK
582,jh,none,right,1,0.5840084999799728,right,1,neutral,0.7716613956494428,0.2299563121835134,OK
583,jh,left,left,0,0.38071390002733096,left,1,valid,0.7345113326619624,0.2437698370620411,OK
584,jh,left,left,0,0.6229251000331715,left,1,valid,0.7345113326619624,0.2437698370620411,OK
585,jh,right,right,1,0.5366357999737374,right,1,valid,0.7345113326619624,0.2437698370620411,OK
586,jh,left,left,0,0.373469699989073,left,1,valid,0.7345113326619624,0.2437698370620411,OK
587,jh,right,right,1,0.3899526000022888,right,1,valid,0.7345113326619624,0.2437698370620411,OK
588,jh,none,right,1,0.5868311999947764,right,1,neutral,0.7716613956494428,0.2299563121835134,OK
589,jh,right,right,1,0.6348749999888241,right,1,valid,0.7345113326619624,0.2437698370620411,OK
590,jh,none,left,0,0.5878255999996327,left,1,neutral,0.7716613956494428,0.2299563121835134,OK
591,jh,left,left,0,0.5043177999905311,left,1,valid,0.7345113326619624,0.2437698370620411,OK
592,jh,none,left,1,0.7040578000014648,right,0,neutral,0.7716613956494428,0.2299563121835134,OK
593,jh,left,left,0,0.3623252999968827,left,1,valid,0.7345113326619624,0.2437698370620411,OK
594,jh,right,right,1,0.24582700000610205,right,1,valid,0.7345113326619624,0.2437698370620411,OK
595,jh,right,right,1,0.848854299983941,right,1,valid,0.7345113326619624,0.2437698370620411,OK
596,jh,left,left,0,0.47773569996934384,left,1,valid,0.7345113326619624,0.2437698370620411,OK
597,jh,none,right,1,0.5261903000064194,right,1,neutral,0.7716613956494428,0.2299563121835134,OK
598,jh,right,right,1,0.5378330000094138,right,1,valid,0.7345113326619624,0.2437698370620411,OK
599,jh,none,left,0,0.5300225000246428,left,1,neutral,0.7716613956494428,0.2299563121835134,OK
600,jh,right,right,1,0.266700700041838,right,1,valid,0.7345113326619624,0.2437698370620411,OK
601,jh,right,right,1,0.3599155999836512,right,1,valid,0.7345113326619624,0.2437698370620411,OK
602,jh,none,right,1,0.46543119999114424,right,1,neutral,0.7716613956494428,0.2299563121835134,OK
603,jh,right,right,0,0.43985739996423945,left,0,valid,0.7345113326619624,0.2437698370620411,OK
604,jh,none,left,0,0.6023789999890141,left,1,neutral,0.7716613956494428,0.2299563121835134,OK
605,jh,none,left,0,1.1390709999832325,left,1,neutral,0.7716613956494428,0.2299563121835134,OK
606,jh,none,right,1,0.48101370001677424,right,1,neutral,0.7716613956494428,0.2299563121835134,OK
607,jh,none,left,0,0.4897835000301711,left,1,neutral,0.7716613956494428,0.2299563121835134,OK
608,jh,none,right,1,0.4855264999787323,right,1,neutral,0.7716613956494428,0.2299563121835134,OK
609,jh,left,right,1,0.55761049996363,right,1,invalid,0.7537437478937564,0.24844249026586113,OK
610,jh,right,left,1,0.2975453999824822,right,0,invalid,0.7537437478937564,0.24844249026586113,OK
611,jh,left,right,1,0.4386161000002176,right,1,invalid,0.7537437478937564,0.24844249026586113,OK
612,jh,none,left,1,0.31399699999019504,right,0,neutral,0.7716613956494428,0.2299563121835134,OK
613,jh,left,left,0,0.254949200025294,left,1,valid,0.7345113326619624,0.2437698370620411,OK
614,jh,right,right,1,0.3633064000168815,right,1,valid,0.7345113326619624,0.2437698370620411,OK
615,jh,right,right,1,0.17554660001769662,right,1,valid,0.7345113326619624,0.2437698370620411,OK
616,jh,none,right,0,0.49401389999547973,left,0,neutral,0.7716613956494428,0.2299563121835134,OK
617,jh,none,left,1,0.6200013000052422,right,0,neutral,0.7716613956494428,0.2299563121835134,OK
618,jh,right,right,1,0.34272069996222854,right,1,valid,0.7345113326619624,0.2437698370620411,OK
619,jh,left,left,0,0.4501962999929674,left,1,valid,0.7345113326619624,0.2437698370620411,OK
620,jh,none,left,0,0.584471499954816,left,1,neutral,0.7716613956494428,0.2299563121835134,OK
621,jh,none,right,0,0.5024564000195824,left,0,neutral,0.7716613956494428,0.2299563121835134,OK
622,jh,none,right,1,0.5157906000385992,right,1,neutral,0.7716613956494428,0.2299563121835134,OK
623,jh,none,right,0,0.4062446000170894,left,0,neutral,0.7716613956494428,0.2299563121835134,OK
624,jh,right,left,1,0.34592130000237375,right,0,invalid,0.7537437478937564,0.24844249026586113,OK
625,jh,left,left,0,0.36931199999526143,left,1,valid,0.7345113326619624,0.2437698370620411,OK
626,jh,none,left,0,0.5591622999636456,left,1,neutral,0.7716613956494428,0.2299563121835134,OK
627,jon,none,right,1,0.700061600015033,right,1,neutral,0.7716613956494428,0.2299563121835134,OK
628,jon,none,right,1,0.6107797999866307,right,1,neutral,0.7716613956494428,0.2299563121835134,OK
629,jon,left,left,1,0.7254160000011325,right,0,valid,0.7345113326619624,0.2437698370620411,OK
630,jon,left,left,0,0.9860696999821812,left,1,valid,0.7345113326619624,0.2437698370620411,OK
631,jon,none,left,1,0.8106039999984205,right,0,neutral,0.7716613956494428,0.2299563121835134,OK
632,jon,left,left,0,0.8653906000545248,left,1,valid,0.7345113326619624,0.2437698370620411,OK
633,jon,none,right,1,0.8215842999634333,right,1,neutral,0.7716613956494428,0.2299563121835134,OK
634,jon,none,left,0,0.9296210999600588,left,1,neutral,0.7716613956494428,0.2299563121835134,OK
635,jon,none,left,1,1.117377100046724,right,0,neutral,0.7716613956494428,0.2299563121835134,OK
636,jon,right,right,1,0.8049129000282846,right,1,valid,0.7345113326619624,0.2437698370620411,OK
637,jon,right,right,1,0.6780187000404112,right,1,valid,0.7345113326619624,0.2437698370620411,OK
638,jon,none,left,0,0.797613899980206,left,1,neutral,0.7716613956494428,0.2299563121835134,OK
639,jon,right,left,1,1.0485979999648407,right,0,invalid,0.7537437478937564,0.24844249026586113,OK
640,jon,none,left,0,0.9125650000059976,left,1,neutral,0.7716613956494428,0.2299563121835134,OK
641,jon,none,left,1,0.6907229999778792,right,0,neutral,0.7716613956494428,0.2299563121835134,OK
642,jon,none,right,1,0.8152402999694459,right,1,neutral,0.7716613956494428,0.2299563121835134,OK
643,jon,none,left,0,0.7619488999480382,left,1,neutral,0.7716613956494428,0.2299563121835134,OK
644,jon,right,left,1,0.4965222000028007,right,0,invalid,0.7537437478937564,0.24844249026586113,OK
645,jon,right,right,1,0.5003274999908172,right,1,valid,0.7345113326619624,0.2437698370620411,OK
646,jon,none,left,0,0.5917793999542482,left,1,neutral,0.7716613956494428,0.2299563121835134,OK
647,jon,none,left,0,0.6833229000330903,left,1,neutral,0.7716613956494428,0.2299563121835134,OK
648,jon,right,right,1,0.5538019000086933,right,1,valid,0.7345113326619624,0.2437698370620411,OK
649,jon,left,right,1,0.7086572999833152,right,1,invalid,0.7537437478937564,0.24844249026586113,OK
650,jon,none,right,1,0.772780800005421,right,1,neutral,0.7716613956494428,0.2299563121835134,OK
651,jon,left,left,0,0.5308345999801531,left,1,valid,0.7345113326619624,0.2437698370620411,OK
652,jon,left,left,0,0.6781327999779023,left,1,valid,0.7345113326619624,0.2437698370620411,OK
653,jon,right,right,1,0.4558895000373014,right,1,valid,0.7345113326619624,0.2437698370620411,OK
654,jon,right,right,1,0.5594008000334725,right,1,valid,0.7345113326619624,0.2437698370620411,OK
655,jon,none,right,1,0.7142122000223026,right,1,neutral,0.7716613956494428,0.2299563121835134,OK
656,jon,left,right,1,0.6681106999749318,right,1,invalid,0.7537437478937564,0.24844249026586113,OK
657,jon,none,right,1,0.5722590999794193,right,1,neutral,0.7716613956494428,0.2299563121835134,OK
658,jon,right,left,1,0.6203884999849834,right,0,invalid,0.7537437478937564,0.24844249026586113,OK
659,jon,right,right,1,0.5180367000284605,right,1,valid,0.7345113326619624,0.2437698370620411,OK
660,jon,left,left,0,0.8054806000436656,left,1,valid,0.7345113326619624,0.2437698370620411,OK
661,jon,none,left,0,0.830161500023678,left,1,neutral,0.7716613956494428,0.2299563121835134,OK
662,jon,left,left,0,0.6474380000145175,left,1,valid,0.7345113326619624,0.2437698370620411,OK
663,jon,none,right,1,0.5485372000257485,right,1,neutral,0.7716613956494428,0.2299563121835134,OK
664,jon,none,right,1,0.5391441999818198,right,1,neutral,0.7716613956494428,0.2299563121835134,OK
665,jon,none,left,1,0.4796776999719441,right,0,neutral,0.7716613956494428,0.2299563121835134,OK
666,jon,none,left,0,0.8200748000526801,left,1,neutral,0.7716613956494428,0.2299563121835134,OK
667,jon,right,right,1,0.4918749000062234,right,1,valid,0.7345113326619624,0.2437698370620411,OK
668,jon,none,left,0,0.6623411999898963,left,1,neutral,0.7716613956494428,0.2299563121835134,OK
669,jon,right,right,1,0.44751329999417067,right,1,valid,0.7345113326619624,0.2437698370620411,OK
670,jon,left,left,0,0.5085385999991558,left,1,valid,0.7345113326619624,0.2437698370620411,OK
671,jon,none,right,1,0.5027514999965206,right,1,neutral,0.7716613956494428,0.2299563121835134,OK
672,jon,left,left,0,0.4872328999917954,left,1,valid,0.7345113326619624,0.2437698370620411,OK
673,jon,none,right,1,0.5179809000110254,right,1,neutral,0.7716613956494428,0.2299563121835134,OK
674,jon,none,left,0,0.5118989000329748,left,1,neutral,0.7716613956494428,0.2299563121835134,OK
675,jon,right,right,1,0.4970104999956675,right,1,valid,0.7345113326619624,0.2437698370620411,OK
676,jon,right,right,1,0.5164628999773413,right,1,valid,0.7345113326619624,0.2437698370620411,OK
677,jon,none,left,0,0.7411756999790668,left,1,neutral,0.7716613956494428,0.2299563121835134,OK
678,jon,left,left,0,1.0722889000317082,left,1,valid,0.7345113326619624,0.2437698370620411,OK
679,jon,none,right,1,0.8201362999971025,right,1,neutral,0.7716613956494428,0.2299563121835134,OK
680,jon,none,right,1,0.8582729999907315,right,1,neutral,0.7716613956494428,0.2299563121835134,OK
681,jon,left,left,1,0.9425859000184572,right,0,valid,0.7345113326619624,0.2437698370620411,OK
682,jon,none,left,0,0.7863893999601714,left,1,neutral,0.7716613956494428,0.2299563121835134,OK
683,jon,right,right,1,0.6608013000222854,right,1,valid,0.7345113326619624,0.2437698370620411,OK
684,jon,none,right,1,0.8658407999901101,right,1,neutral,0.7716613956494428,0.2299563121835134,OK
685,jon,left,left,0,0.779886299977079,left,1,valid,0.7345113326619624,0.2437698370620411,OK
686,jon,none,left,1,0.9472368999850004,right,0,neutral,0.7716613956494428,0.2299563121835134,OK
687,jon,right,right,1,0.5807378999888897,right,1,valid,0.7345113326619624,0.2437698370620411,OK
688,jon,right,left,0,0.6425071000121534,left,1,invalid,0.7537437478937564,0.24844249026586113,OK
689,jon,left,left,0,0.5732311000465415,left,1,valid,0.7345113326619624,0.2437698370620411,OK
690,jon,right,right,1,0.651031100016553,right,1,valid,0.7345113326619624,0.2437698370620411,OK
691,jon,left,right,1,0.7714837999665178,right,1,invalid,0.7537437478937564,0.24844249026586113,OK
692,jon,none,right,1,0.6196934999898076,right,1,neutral,0.7716613956494428,0.2299563121835134,OK
693,jon,left,right,1,0.6674507999559864,right,1,invalid,0.7537437478937564,0.24844249026586113,OK
694,jon,none,right,1,0.7819596999906935,right,1,neutral,0.7716613956494428,0.2299563121835134,OK
695,jon,none,left,1,0.7394567000446841,right,0,neutral,0.7716613956494428,0.2299563121835134,OK
696,jon,none,right,1,1.0171826999867335,right,1,neutral,0.7716613956494428,0.2299563121835134,OK
697,jon,right,right,1,0.5840248999884352,right,1,valid,0.7345113326619624,0.2437698370620411,OK
698,jon,left,left,0,0.6110992000321858,left,1,valid,0.7345113326619624,0.2437698370620411,OK
699,jon,right,right,1,0.5159103000187315,right,1,valid,0.7345113326619624,0.2437698370620411,OK
700,jon,none,right,1,0.7805959000252187,right,1,neutral,0.7716613956494428,0.2299563121835134,OK
701,jon,none,right,1,0.7184313999605365,right,1,neutral,0.7716613956494428,0.2299563121835134,OK
702,jon,none,left,0,0.7094764999928884,left,1,neutral,0.7716613956494428,0.2299563121835134,OK
703,jon,none,left,0,0.7449333000113256,left,1,neutral,0.7716613956494428,0.2299563121835134,OK
704,jon,left,left,0,0.4749344000010751,left,1,valid,0.7345113326619624,0.2437698370620411,OK
705,jon,none,right,1,0.6360660999780521,right,1,neutral,0.7716613956494428,0.2299563121835134,OK
706,jon,left,left,0,0.30677929997909814,left,1,valid,0.7345113326619624,0.2437698370620411,OK
707,jon,none,left,1,0.6615788999479264,right,0,neutral,0.7716613956494428,0.2299563121835134,OK
708,jon,left,left,0,0.5377130000269972,left,1,valid,0.7345113326619624,0.2437698370620411,OK
709,jon,none,right,1,0.5833065999904647,right,1,neutral,0.7716613956494428,0.2299563121835134,OK
710,jon,none,left,0,0.5397627999773249,left,1,neutral,0.7716613956494428,0.2299563121835134,OK
711,jon,right,right,1,0.37463540001772344,right,1,valid,0.7345113326619624,0.2437698370620411,OK
712,jon,none,right,1,0.6924732999759726,right,1,neutral,0.7716613956494428,0.2299563121835134,OK
713,jon,right,right,1,0.5330907999887131,right,1,valid,0.7345113326619624,0.2437698370620411,OK
714,jon,left,left,0,0.5812459999579005,left,1,valid,0.7345113326619624,0.2437698370620411,OK
715,jon,none,left,1,0.5991882999660447,right,0,neutral,0.7716613956494428,0.2299563121835134,OK
716,jon,none,left,0,0.4929679000051692,left,1,neutral,0.7716613956494428,0.2299563121835134,OK
717,jon,left,left,0,0.44713250000495464,left,1,valid,0.7345113326619624,0.2437698370620411,OK
718,jon,none,right,1,0.6182313000317663,right,1,neutral,0.7716613956494428,0.2299563121835134,OK
719,jon,right,right,1,0.4560137000516988,right,1,valid,0.7345113326619624,0.2437698370620411,OK
720,jon,left,left,0,0.4890769000048749,left,1,valid,0.7345113326619624,0.2437698370620411,OK
721,jon,right,left,1,0.6404512000153773,right,0,invalid,0.7537437478937564,0.24844249026586113,OK
722,jon,right,right,1,0.5647037999588065,right,1,valid,0.7345113326619624,0.2437698370620411,OK
723,jon,right,left,1,0.39228069997625425,right,0,invalid,0.7537437478937564,0.24844249026586113,OK
724,jon,none,left,0,0.6268370999605395,left,1,neutral,0.7716613956494428,0.2299563121835134,OK
725,jon,right,right,1,0.6008264999836683,right,1,valid,0.7345113326619624,0.2437698370620411,OK
726,jon,left,left,0,0.7715378999710083,left,1,valid,0.7345113326619624,0.2437698370620411,OK
727,jon,left,left,0,0.6403226000256836,left,1,valid,0.7345113326619624,0.2437698370620411,OK
728,jon,right,right,1,0.620929199969396,right,1,valid,0.7345113326619624,0.2437698370620411,OK
729,jon,none,right,1,0.6686337999999523,right,1,neutral,0.7716613956494428,0.2299563121835134,OK
730,jon,none,left,1,0.7267775000073016,right,0,neutral,0.7716613956494428,0.2299563121835134,OK
731,jon,none,left,0,0.7165687000378966,left,1,neutral,0.7716613956494428,0.2299563121835134,OK
732,jon,none,left,1,0.7242525999899954,right,0,neutral,0.7716613956494428,0.2299563121835134,OK
733,jon,right,right,1,0.5352370000327937,right,1,valid,0.7345113326619624,0.2437698370620411,OK
734,jon,left,left,0,0.579372100008186,left,1,valid,0.7345113326619624,0.2437698370620411,OK
735,jon,right,right,1,0.4904207000508905,right,1,valid,0.7345113326619624,0.2437698370620411,OK
736,jon,left,left,0,0.4010905000031926,left,1,valid,0.7345113326619624,0.2437698370620411,OK
737,jon,none,right,1,0.9028808999573812,right,1,neutral,0.7716613956494428,0.2299563121835134,OK
738,jon,none,right,1,0.6472786999656819,right,1,neutral,0.7716613956494428,0.2299563121835134,OK
739,jon,left,left,0,0.6485714000300504,left,1,valid,0.7345113326619624,0.2437698370620411,OK
740,jon,none,left,0,0.6997425999725237,left,1,neutral,0.7716613956494428,0.2299563121835134,OK
741,jon,none,right,1,0.6504958999576047,right,1,neutral,0.7716613956494428,0.2299563121835134,OK
742,jon,none,right,1,0.4309915999765508,right,1,neutral,0.7716613956494428,0.2299563121835134,OK
743,jon,left,left,0,0.4680200999719091,left,1,valid,0.7345113326619624,0.2437698370620411,OK
744,jon,none,right,1,0.5121419000206515,right,1,neutral,0.7716613956494428,0.2299563121835134,OK
745,jon,left,left,1,0.7769763999967836,right,0,valid,0.7345113326619624,0.2437698370620411,OK
746,jon,left,left,0,0.6481288999784738,left,1,valid,0.7345113326619624,0.2437698370620411,OK
747,jon,none,left,1,0.6326154000125825,right,0,neutral,0.7716613956494428,0.2299563121835134,OK
748,jon,right,right,1,0.753509700007271,right,1,valid,0.7345113326619624,0.2437698370620411,OK
749,jon,none,right,1,0.6581664999830537,right,1,neutral,0.7716613956494428,0.2299563121835134,OK
750,jon,none,right,1,0.5924967000028118,right,1,neutral,0.7716613956494428,0.2299563121835134,OK
751,jon,right,right,1,0.5034604999818839,right,1,valid,0.7345113326619624,0.2437698370620411,OK
752,jon,none,left,0,0.5981279999832623,left,1,neutral,0.7716613956494428,0.2299563121835134,OK
753,jon,none,right,1,0.628861200006213,right,1,neutral,0.7716613956494428,0.2299563121835134,OK
754,jon,right,left,1,0.6053011000039987,right,0,invalid,0.7537437478937564,0.24844249026586113,OK
755,jon,right,right,1,0.6598647000500932,right,1,valid,0.7345113326619624,0.2437698370620411,OK
756,jon,none,left,0,0.487390200025402,left,1,neutral,0.7716613956494428,0.2299563121835134,OK
757,jon,none,left,0,0.6186269000172615,left,1,neutral,0.7716613956494428,0.2299563121835134,OK
758,jon,none,right,1,0.5167193000088446,right,1,neutral,0.7716613956494428,0.2299563121835134,OK
759,jon,left,right,1,0.7109103000257164,right,1,invalid,0.7537437478937564,0.24844249026586113,OK
760,jon,left,right,1,0.6254112999886274,right,1,invalid,0.7537437478937564,0.24844249026586113,OK
761,jon,left,left,0,0.44313339999644086,left,1,valid,0.7345113326619624,0.2437698370620411,OK
762,jon,left,right,1,0.5535069999750704,right,1,invalid,0.7537437478937564,0.24844249026586113,OK
763,jon,none,right,1,0.8281070999801159,right,1,neutral,0.7716613956494428,0.2299563121835134,OK
764,jon,left,left,0,0.5954274000250734,left,1,valid,0.7345113326619624,0.2437698370620411,OK
765,jon,none,right,1,0.5863925999728963,right,1,neutral,0.7716613956494428,0.2299563121835134,OK
766,jon,none,right,1,0.6068363999947906,right,1,neutral,0.7716613956494428,0.2299563121835134,OK
767,jon,right,right,1,0.541474100027699,right,1,valid,0.7345113326619624,0.2437698370620411,OK
768,jon,none,right,1,0.46229250001488253,right,1,neutral,0.7716613956494428,0.2299563121835134,OK
769,jon,none,left,0,0.7766399000538513,left,1,neutral,0.7716613956494428,0.2299563121835134,OK
770,jon,none,left,1,0.5046603999799117,right,0,neutral,0.7716613956494428,0.2299563121835134,OK
771,jon,none,left,1,0.652213399996981,right,0,neutral,0.7716613956494428,0.2299563121835134,OK
772,jon,none,left,0,0.6566109000123106,left,1,neutral,0.7716613956494428,0.2299563121835134,OK
773,jon,none,left,0,0.8146018999977969,left,1,neutral,0.7716613956494428,0.2299563121835134,OK
774,jon,none,left,0,0.8585899000172503,left,1,neutral,0.7716613956494428,0.2299563121835134,OK
775,jon,right,left,0,0.7526553999632597,left,1,invalid,0.7537437478937564,0.24844249026586113,OK
776,jon,right,right,1,0.6370736000244506,right,1,valid,0.7345113326619624,0.2437698370620411,OK
777,jon,right,right,1,0.4578923999797553,right,1,valid,0.7345113326619624,0.2437698370620411,OK
778,jon,none,right,1,0.711615799984429,right,1,neutral,0.7716613956494428,0.2299563121835134,OK
779,jon,left,right,1,0.6955664999550208,right,1,invalid,0.7537437478937564,0.24844249026586113,OK
780,jon,none,right,1,0.6970142999780364,right,1,neutral,0.7716613956494428,0.2299563121835134,OK
781,jon,left,left,0,0.4183383000199683,left,1,valid,0.7345113326619624,0.2437698370620411,OK
782,jon,none,left,1,0.7720859000110067,right,0,neutral,0.7716613956494428,0.2299563121835134,OK
783,jon,right,right,1,0.6501864999881946,right,1,valid,0.7345113326619624,0.2437698370620411,OK
784,jon,right,right,1,0.7510829000384547,right,1,valid,0.7345113326619624,0.2437698370620411,OK
785,jon,left,left,0,0.5824399000266567,left,1,valid,0.7345113326619624,0.2437698370620411,OK
786,jon,none,right,1,0.579488399962429,right,1,neutral,0.7716613956494428,0.2299563121835134,OK
787,kaja,right,right,1,0.6324372999952175,right,1,valid,0.7345113326619624,0.2437698370620411,OK
788,kaja,none,left,0,0.6396278999745846,left,1,neutral,0.7716613956494428,0.2299563121835134,OK
789,kaja,none,left,0,0.7205393000040203,left,1,neutral,0.7716613956494428,0.2299563121835134,OK
790,kaja,none,right,1,0.857301699987147,right,1,neutral,0.7716613956494428,0.2299563121835134,OK
791,kaja,right,right,0,0.5822180000250228,left,0,valid,0.7345113326619624,0.2437698370620411,OK
792,kaja,left,left,0,0.6432157999952324,left,1,valid,0.7345113326619624,0.2437698370620411,OK
793,kaja,none,right,0,0.5974861999857239,left,0,neutral,0.7716613956494428,0.2299563121835134,OK
794,kaja,left,left,0,0.5320989000028931,left,1,valid,0.7345113326619624,0.2437698370620411,OK
795,kaja,none,right,1,0.552808600012213,right,1,neutral,0.7716613956494428,0.2299563121835134,OK
796,kaja,none,left,0,0.5269186999648809,left,1,neutral,0.7716613956494428,0.2299563121835134,OK
797,kaja,none,left,1,0.5251927999779582,right,0,neutral,0.7716613956494428,0.2299563121835134,OK
798,kaja,left,left,0,0.5065337000414729,left,1,valid,0.7345113326619624,0.2437698370620411,OK
799,kaja,none,right,0,0.5435926999780349,left,0,neutral,0.7716613956494428,0.2299563121835134,OK
800,kaja,right,right,0,0.4782314000185579,left,0,valid,0.7345113326619624,0.2437698370620411,OK
801,kaja,none,right,1,0.5150891999946907,right,1,neutral,0.7716613956494428,0.2299563121835134,OK
802,kaja,none,left,0,0.5120871000108309,left,1,neutral,0.7716613956494428,0.2299563121835134,OK
803,kaja,right,right,1,0.7976608999888413,right,1,valid,0.7345113326619624,0.2437698370620411,OK
804,kaja,none,right,0,0.7179015000001527,left,0,neutral,0.7716613956494428,0.2299563121835134,OK
805,kaja,left,left,0,0.4760041999979876,left,1,valid,0.7345113326619624,0.2437698370620411,OK
806,kaja,none,left,1,0.9666748999734408,right,0,neutral,0.7716613956494428,0.2299563121835134,OK
807,kaja,right,left,0,0.5445218000095338,left,1,invalid,0.7537437478937564,0.24844249026586113,OK
808,kaja,right,right,1,0.5890004999819212,right,1,valid,0.7345113326619624,0.2437698370620411,OK
809,kaja,right,left,0,0.6194454999640584,left,1,invalid,0.7537437478937564,0.24844249026586113,OK
810,kaja,none,right,0,0.9975476000108756,left,0,neutral,0.7716613956494428,0.2299563121835134,OK
811,kaja,none,left,0,0.8716467999620363,left,1,neutral,0.7716613956494428,0.2299563121835134,OK
812,kaja,right,right,0,0.9528583000064828,left,0,valid,0.7345113326619624,0.2437698370620411,OK
813,kaja,right,right,1,0.7293695000116713,right,1,valid,0.7345113326619624,0.2437698370620411,OK
814,kaja,none,right,0,0.9311479000025428,left,0,neutral,0.7716613956494428,0.2299563121835134,OK
815,kaja,none,right,1,0.7920230000163428,right,1,neutral,0.7716613956494428,0.2299563121835134,OK
816,kaja,left,left,0,0.8223838999983855,left,1,valid,0.7345113326619624,0.2437698370620411,OK
817,kaja,left,left,0,0.8503005999955349,left,1,valid,0.7345113326619624,0.2437698370620411,OK
818,kaja,right,right,1,0.7118435999727808,right,1,valid,0.7345113326619624,0.2437698370620411,OK
819,kaja,right,right,0,0.8656649999902584,left,0,valid,0.7345113326619624,0.2437698370620411,OK
820,kaja,none,right,1,0.7139455999713391,right,1,neutral,0.7716613956494428,0.2299563121835134,OK
821,kaja,right,right,1,1.061508999962825,right,1,valid,0.7345113326619624,0.2437698370620411,OK
822,kaja,none,right,0,0.6359948000172153,left,0,neutral,0.7716613956494428,0.2299563121835134,OK
823,kaja,none,right,0,0.7604305999702774,left,0,neutral,0.7716613956494428,0.2299563121835134,OK
824,kaja,left,right,0,0.7935995000298135,left,0,invalid,0.7537437478937564,0.24844249026586113,OK
825,kaja,none,left,0,0.8447619000216946,left,1,neutral,0.7716613956494428,0.2299563121835134,OK
826,kaja,right,left,1,0.8591478000162169,right,0,invalid,0.7537437478937564,0.24844249026586113,OK
827,kaja,left,left,0,0.956652100023348,left,1,valid,0.7345113326619624,0.2437698370620411,OK
828,kaja,left,left,0,0.9538212000043133,left,1,valid,0.7345113326619624,0.2437698370620411,OK
829,kaja,right,right,0,0.8183234999887645,left,0,valid,0.7345113326619624,0.2437698370620411,OK
830,kaja,right,right,1,1.1429117000079714,right,1,valid,0.7345113326619624,0.2437698370620411,OK
831,kaja,none,left,0,0.7038928000256419,left,1,neutral,0.7716613956494428,0.2299563121835134,OK
832,kaja,left,right,0,0.5786136999959126,left,0,invalid,0.7537437478937564,0.24844249026586113,OK
833,kaja,none,left,0,0.776231599971652,left,1,neutral,0.7716613956494428,0.2299563121835134,OK
834,kaja,left,left,0,0.767119999974966,left,1,valid,0.7345113326619624,0.2437698370620411,OK
835,kaja,none,left,0,0.691036400035955,left,1,neutral,0.7716613956494428,0.2299563121835134,OK
836,kaja,none,right,1,0.7418192999903113,right,1,neutral,0.7716613956494428,0.2299563121835134,OK
837,kaja,none,right,1,0.7621882000239566,right,1,neutral,0.7716613956494428,0.2299563121835134,OK
838,kaja,none,right,0,0.926924599974882,left,0,neutral,0.7716613956494428,0.2299563121835134,OK
839,kaja,none,left,0,0.6382359000272118,left,1,neutral,0.7716613956494428,0.2299563121835134,OK
840,kaja,left,left,0,0.6390572999953292,left,1,valid,0.7345113326619624,0.2437698370620411,OK
841,kaja,right,right,1,0.5205178000032902,right,1,valid,0.7345113326619624,0.2437698370620411,OK
842,kaja,none,left,0,0.6378351000021212,left,1,neutral,0.7716613956494428,0.2299563121835134,OK
843,kaja,left,left,0,0.5788519000052474,left,1,valid,0.7345113326619624,0.2437698370620411,OK
844,kaja,left,left,1,1.13683500001207,right,0,valid,0.7345113326619624,0.2437698370620411,OK
845,kaja,none,left,0,0.5808035000227392,left,1,neutral,0.7716613956494428,0.2299563121835134,OK
846,kaja,none,right,0,0.9213060999754816,left,0,neutral,0.7716613956494428,0.2299563121835134,OK
847,kaja,left,right,0,0.8725123999756761,left,0,invalid,0.7537437478937564,0.24844249026586113,OK
848,kaja,none,right,1,0.5409456000197679,right,1,neutral,0.7716613956494428,0.2299563121835134,OK
849,kaja,none,left,0,0.485007899987977,left,1,neutral,0.7716613956494428,0.2299563121835134,OK
850,kaja,none,right,0,0.5728296000161208,left,0,neutral,0.7716613956494428,0.2299563121835134,OK
851,kaja,left,left,0,0.5733157000504434,left,1,valid,0.7345113326619624,0.2437698370620411,OK
852,kaja,none,right,1,0.665055499994196,right,1,neutral,0.7716613956494428,0.2299563121835134,OK
853,kaja,left,left,0,0.9285955000086688,left,1,valid,0.7345113326619624,0.2437698370620411,OK
854,kaja,right,right,0,0.6474669000017457,left,0,valid,0.7345113326619624,0.2437698370620411,OK
855,kaja,none,left,1,0.37118670000927517,right,0,neutral,0.7716613956494428,0.2299563121835134,OK
856,kaja,none,left,0,0.578120999969542,left,1,neutral,0.7716613956494428,0.2299563121835134,OK
857,kaja,left,left,0,0.5593925000284798,left,1,valid,0.7345113326619624,0.2437698370620411,OK
858,kaja,left,left,0,0.6436968999914825,left,1,valid,0.7345113326619624,0.2437698370620411,OK
859,kaja,none,left,0,0.6543680999893695,left,1,neutral,0.7716613956494428,0.2299563121835134,OK
860,kaja,right,left,1,0.6888906999956816,right,0,invalid,0.7537437478937564,0.24844249026586113,OK
861,kaja,right,right,1,0.26435230002971366,right,1,valid,0.7345113326619624,0.2437698370620411,OK
862,kaja,right,right,1,0.4710870999842882,right,1,valid,0.7345113326619624,0.2437698370620411,OK
863,kaja,left,right,0,0.5387644000002183,left,0,invalid,0.7537437478937564,0.24844249026586113,OK
864,kaja,none,right,0,0.5733945000101812,left,0,neutral,0.7716613956494428,0.2299563121835134,OK
865,kaja,none,left,0,0.6613631999935023,left,1,neutral,0.7716613956494428,0.2299563121835134,OK
866,kaja,none,left,0,0.6285416000173427,left,1,neutral,0.7716613956494428,0.2299563121835134,OK
867,kaja,none,left,1,0.886827899958007,right,0,neutral,0.7716613956494428,0.2299563121835134,OK
868,kaja,left,right,0,0.549759199959226,left,0,invalid,0.7537437478937564,0.24844249026586113,OK
869,kaja,right,right,1,0.5704157000291161,right,1,valid,0.7345113326619624,0.2437698370620411,OK
870,kaja,none,right,0,0.5119572000112385,left,0,neutral,0.7716613956494428,0.2299563121835134,OK
871,kaja,right,left,0,0.5598047000239603,left,1,invalid,0.7537437478937564,0.24844249026586113,OK
872,kaja,right,left,0,0.530875800002832,left,1,invalid,0.7537437478937564,0.24844249026586113,OK
873,kaja,left,left,0,0.8881237999885343,left,1,valid,0.7345113326619624,0.2437698370620411,OK
874,kaja,none,left,1,0.7498533999896608,right,0,neutral,0.7716613956494428,0.2299563121835134,OK
875,kaja,none,left,0,0.5743183000013232,left,1,neutral,0.7716613956494428,0.2299563121835134,OK
876,kaja,none,right,0,0.6618028999655508,left,0,neutral,0.7716613956494428,0.2299563121835134,OK
877,kaja,left,left,0,0.6096535999677144,left,1,valid,0.7345113326619624,0.2437698370620411,OK
878,kaja,left,left,0,0.5642367000109516,left,1,valid,0.7345113326619624,0.2437698370620411,OK
879,kaja,left,left,1,0.8481602999963798,right,0,valid,0.7345113326619624,0.2437698370620411,OK
880,kaja,left,left,0,0.7419550999766216,left,1,valid,0.7345113326619624,0.2437698370620411,OK
881,kaja,none,right,0,0.5861004999605939,left,0,neutral,0.7716613956494428,0.2299563121835134,OK
882,kaja,none,left,0,0.8576347000198439,left,1,neutral,0.7716613956494428,0.2299563121835134,OK
883,kaja,left,left,0,0.701601600041613,left,1,valid,0.7345113326619624,0.2437698370620411,OK
884,kaja,none,right,1,0.7428587000467815,right,1,neutral,0.7716613956494428,0.2299563121835134,OK
885,kaja,right,right,0,0.7741508000181057,left,0,valid,0.7345113326619624,0.2437698370620411,OK
886,kaja,none,right,0,0.8152273999876343,left,0,neutral,0.7716613956494428,0.2299563121835134,OK
887,kaja,right,right,0,1.099599999957718,left,0,valid,0.7345113326619624,0.2437698370620411,OK
888,kaja,none,left,0,0.8603102000197396,left,1,neutral,0.7716613956494428,0.2299563121835134,OK
889,kaja,right,right,1,0.34734380000736564,right,1,valid,0.7345113326619624,0.2437698370620411,OK
890,kaja,left,left,0,0.5879340000101365,left,1,valid,0.7345113326619624,0.2437698370620411,OK
891,kaja,left,right,0,0.6096406999859028,left,0,invalid,0.7537437478937564,0.24844249026586113,OK
892,kaja,right,right,0,0.5977547999937087,left,0,valid,0.7345113326619624,0.2437698370620411,OK
893,kaja,right,left,0,0.6784294999670237,left,1,invalid,0.7537437478937564,0.24844249026586113,OK
894,kaja,right,right,1,0.6997241000062786,right,1,valid,0.7345113326619624,0.2437698370620411,OK
895,kaja,left,left,0,0.7503674000035971,left,1,valid,0.7345113326619624,0.2437698370620411,OK
896,kaja,none,right,1,0.6318046000087634,right,1,neutral,0.7716613956494428,0.2299563121835134,OK
897,kaja,none,right,1,0.938353100034874,right,1,neutral,0.7716613956494428,0.2299563121835134,OK
898,kaja,none,right,0,0.74088950001169,left,0,neutral,0.7716613956494428,0.2299563121835134,OK
899,kaja,left,right,1,0.6547284999978729,right,1,invalid,0.7537437478937564,0.24844249026586113,OK
900,kaja,left,left,0,0.8215707000344992,left,1,valid,0.7345113326619624,0.2437698370620411,OK
901,kaja,left,left,0,0.6793580999947153,left,1,valid,0.7345113326619624,0.2437698370620411,OK
902,kaja,none,left,1,0.8775705000152811,right,0,neutral,0.7716613956494428,0.2299563121835134,OK
903,kaja,none,left,0,0.5485613999771886,left,1,neutral,0.7716613956494428,0.2299563121835134,OK
904,kaja,right,right,1,0.6224895999766886,right,1,valid,0.7345113326619624,0.2437698370620411,OK
905,kaja,none,right,0,0.6607339000329375,left,0,neutral,0.7716613956494428,0.2299563121835134,OK
906,kaja,none,left,1,0.898103000014089,right,0,neutral,0.7716613956494428,0.2299563121835134,OK
907,kaja,none,left,0,0.5689631000277586,left,1,neutral,0.7716613956494428,0.2299563121835134,OK
908,kaja,right,right,1,0.680903300002683,right,1,valid,0.7345113326619624,0.2437698370620411,OK
909,kaja,right,right,0,0.5585859999991953,left,0,valid,0.7345113326619624,0.2437698370620411,OK
910,kaja,right,right,1,0.8056942999828607,right,1,valid,0.7345113326619624,0.2437698370620411,OK
911,kaja,none,left,0,0.5289395999861881,left,1,neutral,0.7716613956494428,0.2299563121835134,OK
912,kaja,none,right,1,0.6471897999872454,right,1,neutral,0.7716613956494428,0.2299563121835134,OK
913,kaja,none,right,0,0.587880100007169,left,0,neutral,0.7716613956494428,0.2299563121835134,OK
914,kaja,left,right,1,0.6121926000341773,right,1,invalid,0.7537437478937564,0.24844249026586113,OK
915,kaja,right,right,0,0.6704789000214078,left,0,valid,0.7345113326619624,0.2437698370620411,OK
916,kaja,none,right,1,0.6011436999542639,right,1,neutral,0.7716613956494428,0.2299563121835134,OK
917,kaja,right,right,0,0.532290400005877,left,0,valid,0.7345113326619624,0.2437698370620411,OK
918,kaja,none,right,1,0.7432739000068977,right,1,neutral,0.7716613956494428,0.2299563121835134,OK
919,kaja,none,right,0,0.7872823000070639,left,0,neutral,0.7716613956494428,0.2299563121835134,OK
920,kaja,none,left,0,0.6523675000062212,left,1,neutral,0.7716613956494428,0.2299563121835134,OK
921,kaja,none,left,0,0.6704300999990664,left,1,neutral,0.7716613956494428,0.2299563121835134,OK
922,kaja,none,right,1,0.636698400019668,right,1,neutral,0.7716613956494428,0.2299563121835134,OK
923,kaja,left,left,0,0.5582496999995783,left,1,valid,0.7345113326619624,0.2437698370620411,OK
924,kaja,none,right,1,0.5716469999752007,right,1,neutral,0.7716613956494428,0.2299563121835134,OK
925,kaja,none,left,0,0.6500848000287078,left,1,neutral,0.7716613956494428,0.2299563121835134,OK
926,kaja,none,left,1,0.69397749996278435,right,0,neutral,0.7716613956494428,0.2299563121835134,OK
927,kaja,none,left,1,0.9382293000235222,right,0,neutral,0.7716613956494428,0.2299563121835134,OK
928,kaja,right,left,0,0.6001046000164934,left,1,invalid,0.7537437478937564,0.24844249026586113,OK
929,kaja,none,left,0,0.754233599989675,left,1,neutral,0.7716613956494428,0.2299563121835134,OK
930,kaja,none,right,0,0.7185709000332281,left,0,neutral,0.7716613956494428,0.2299563121835134,OK
931,kaja,right,right,1,0.5766902000177652,right,1,valid,0.7345113326619624,0.2437698370620411,OK
932,kaja,none,left,1,1.3077687000040896,right,0,neutral,0.7716613956494428,0.2299563121835134,OK
933,kaja,none,left,0,1.103915300045628,left,1,neutral,0.7716613956494428,0.2299563121835134,OK
934,kaja,left,left,0,1.061989600013476,left,1,valid,0.7345113326619624,0.2437698370620411,OK
935,kaja,left,left,0,0.7360222999705002,left,1,valid,0.7345113326619624,0.2437698370620411,OK
936,kaja,right,right,1,0.6273286999785341,right,1,valid,0.7345113326619624,0.2437698370620411,OK
937,kaja,none,left,0,0.5548377999803051,left,1,neutral,0.7716613956494428,0.2299563121835134,OK
938,kaja,left,left,0,0.4997457000426948,left,1,valid,0.7345113326619624,0.2437698370620411,OK
939,kaja,none,right,1,0.7908621999667957,right,1,neutral,0.7716613956494428,0.2299563121835134,OK
940,kaja,left,left,0,0.7318388000130653,left,1,valid,0.7345113326619624,0.2437698370620411,OK
941,kaja,right,right,1,0.7392206999938935,right,1,valid,0.7345113326619624,0.2437698370620411,OK
942,kaja,none,right,0,0.7602788000367582,left,0,neutral,0.7716613956494428,0.2299563121835134,OK
943,kaja,none,right,0,0.6084889000048861,left,0,neutral,0.7716613956494428,0.2299563121835134,OK
944,kaja,left,left,1,0.5016889999969862,right,0,valid,0.7345113326619624,0.2437698370620411,OK
945,kaja,right,right,1,0.6225063999881968,right,1,valid,0.7345113326619624,0.2437698370620411,OK
946,kaja,none,left,0,0.7038327999762259,left,1,neutral,0.7716613956494428,0.2299563121835134,OK
947,LB99,none,right,1,0.6187280979938805,right,1,neutral,0.7716613956494428,0.2299563121835134,OK
948,LB99,left,left,0,0.5668269998859614,left,1,valid,0.7345113326619624,0.2437698370620411,OK
949,LB99,none,right,1,0.636393797933124,right,1,neutral,0.7716613956494428,0.2299563121835134,OK
950,LB99,none,left,1,0.687745861010626,right,0,neutral,0.7716613956494428,0.2299563121835134,OK
951,LB99,none,right,1,0.6520821849117056,right,1,neutral,0.7716613956494428,0.2299563121835134,OK
952,LB99,left,right,0,0.4183303180616349,left,0,invalid,0.7537437478937564,0.24844249026586113,OK
953,LB99,none,left,0,0.6770646279910579,left,1,neutral,0.7716613956494428,0.2299563121835134,OK
954,LB99,none,right,1,0.6010950009804219,right,1,neutral,0.7716613956494428,0.2299563121835134,OK
955,LB99,right,right,1,0.5182156349765137,right,1,valid,0.7345113326619624,0.2437698370620411,OK
956,LB99,none,right,1,0.7486434018937871,right,1,neutral,0.7716613956494428,0.2299563121835134,OK
957,LB99,none,right,1,0.6024678299436346,right,1,neutral,0.7716613956494428,0.2299563121835134,OK
958,LB99,none,right,1,0.7329548429697752,right,1,neutral,0.7716613956494428,0.2299563121835134,OK
959,LB99,none,right,1,0.7758656379301101,right,1,neutral,0.7716613956494428,0.2299563121835134,OK
960,LB99,left,right,1,0.5064549900125712,right,1,invalid,0.7537437478937564,0.24844249026586113,OK
961,LB99,none,left,0,0.5780984020093456,left,1,neutral,0.7716613956494428,0.2299563121835134,OK
962,LB99,right,left,0,0.9164115500170738,left,1,invalid,0.7537437478937564,0.24844249026586113,OK
963,LB99,none,right,1,0.9776066149352118,right,1,neutral,0.7716613956494428,0.2299563121835134,OK
964,LB99,left,left,0,0.6839279520791024,left,1,valid,0.7345113326619624,0.2437698370620411,OK
965,LB99,none,right,1,0.6349875350715593,right,1,neutral,0.7716613956494428,0.2299563121835134,OK
966,LB99,right,right,1,0.7171220830641687,right,1,valid,0.7345113326619624,0.2437698370620411,OK
967,LB99,left,left,0,0.9125859340419992,left,1,valid,0.7345113326619624,0.2437698370620411,OK
968,LB99,none,right,1,0.6669743849197403,right,1,neutral,0.7716613956494428,0.2299563121835134,OK
969,LB99,none,left,1,0.7403394640423357,right,0,neutral,0.7716613956494428,0.2299563121835134,OK
970,LB99,right,right,1,0.5105625400319695,right,1,valid,0.7345113326619624,0.2437698370620411,OK
971,LB99,none,right,1,0.6346440599299967,right,1,neutral,0.7716613956494428,0.2299563121835134,OK
972,LB99,right,right,1,0.4309119820827618,right,1,valid,0.7345113326619624,0.2437698370620411,OK
973,LB99,none,right,1,0.7377719979267567,right,1,neutral,0.7716613956494428,0.2299563121835134,OK
974,LB99,left,left,0,0.5644564280519262,left,1,valid,0.7345113326619624,0.2437698370620411,OK
975,LB99,right,left,0,0.6448529249755666,left,1,invalid,0.7537437478937564,0.24844249026586113,OK
976,LB99,none,left,0,0.6359003989491612,left,1,neutral,0.7716613956494428,0.2299563121835134,OK
977,LB99,left,left,0,0.4975589868845418,left,1,valid,0.7345113326619624,0.2437698370620411,OK
978,LB99,none,left,0,0.60325028502848,left,1,neutral,0.7716613956494428,0.2299563121835134,OK
979,LB99,none,left,0,0.6768112949794158,left,1,neutral,0.7716613956494428,0.2299563121835134,OK
980,LB99,left,left,0,0.6907822230132297,left,1,valid,0.7345113326619624,0.2437698370620411,OK
981,LB99,none,right,1,1.3230924220988527,right,1,neutral,0.7716613956494428,0.2299563121835134,OK
982,LB99,none,left,0,0.8135745000327006,left,1,neutral,0.7716613956494428,0.2299563121835134,OK
983,LB99,left,left,0,0.49987383699044585,left,1,valid,0.7345113326619624,0.2437698370620411,OK
984,LB99,right,right,1,0.42035893304273486,right,1,valid,0.7345113326619624,0.2437698370620411,OK
985,LB99,none,right,1,0.651598299969919,right,1,neutral,0.7716613956494428,0.2299563121835134,OK
986,LB99,none,left,0,0.6504552329424769,left,1,neutral,0.7716613956494428,0.2299563121835134,OK
987,LB99,right,right,1,0.851200488046743,right,1,valid,0.7345113326619624,0.2437698370620411,OK
988,LB99,right,right,1,0.5212737489491701,right,1,valid,0.7345113326619624,0.2437698370620411,OK
989,LB99,none,right,1,0.6972707170061767,right,1,neutral,0.7716613956494428,0.2299563121835134,OK
990,LB99,right,right,1,0.6981179169379175,right,1,valid,0.7345113326619624,0.2437698370620411,OK
991,LB99,left,right,1,0.6364112499868497,right,1,invalid,0.7537437478937564,0.24844249026586113,OK
992,LB99,none,left,0,0.5151989350561053,left,1,neutral,0.7716613956494428,0.2299563121835134,OK
993,LB99,none,left,0,0.5486877070507035,left,1,neutral,0.7716613956494428,0.2299563121835134,OK
994,LB99,left,left,0,0.43751902994699776,left,1,valid,0.7345113326619624,0.2437698370620411,OK
995,LB99,right,right,1,0.6685484149493277,right,1,valid,0.7345113326619624,0.2437698370620411,OK
996,LB99,left,left,0,0.3964215819723904,left,1,valid,0.7345113326619624,0.2437698370620411,OK
997,LB99,right,left,0,0.998933400027454,left,1,invalid,0.7537437478937564,0.24844249026586113,OK
998,LB99,right,right,1,0.47219912498258054,right,1,valid,0.7345113326619624,0.2437698370620411,OK
999,LB99,right,right,1,0.5761810750700533,right,1,valid,0.7345113326619624,0.2437698370620411,OK
1000,LB99,none,left,0,0.681699292967096,left,1,neutral,0.7716613956494428,0.2299563121835134,OK
1001,LB99,none,left,0,0.518541235011071,left,1,neutral,0.7716613956494428,0.2299563121835134,OK
1002,LB99,none,left,0,0.529413745040074,left,1,neutral,0.7716613956494428,0.2299563121835134,OK
1003,LB99,left,left,0,0.43392371793743223,left,1,valid,0.7345113326619624,0.2437698370620411,OK
1004,LB99,right,right,1,1.055526984971948,right,1,valid,0.7345113326619624,0.2437698370620411,OK
1005,LB99,none,right,1,0.7649206999922171,right,1,neutral,0.7716613956494428,0.2299563121835134,OK
1006,LB99,none,right,1,0.7350161030190066,right,1,neutral,0.7716613956494428,0.2299563121835134,OK
1007,LB99,left,left,0,0.4505494369659573,left,1,valid,0.7345113326619624,0.2437698370620411,OK
1008,LB99,left,left,0,0.46329106006305665,left,1,valid,0.7345113326619624,0.2437698370620411,OK
1009,LB99,left,right,1,0.5797809499781579,right,1,invalid,0.7537437478937564,0.24844249026586113,OK
1010,LB99,left,left,0,0.6246214900165796,left,1,valid,0.7345113326619624,0.2437698370620411,OK
1011,LB99,left,left,0,0.4721362650161609,left,1,valid,0.7345113326619624,0.2437698370620411,OK
1012,LB99,none,left,0,0.592144308029674,left,1,neutral,0.7716613956494428,0.2299563121835134,OK
1013,LB99,none,left,0,0.7545000560348853,left,1,neutral,0.7716613956494428,0.2299563121835134,OK
1014,LB99,right,right,1,0.94497939303983,right,1,valid,0.7345113326619624,0.2437698370620411,OK
1015,LB99,none,left,0,0.6237462199060246,left,1,neutral,0.7716613956494428,0.2299563121835134,OK
1016,LB99,none,right,1,0.4461649920558557,right,1,neutral,0.7716613956494428,0.2299563121835134,OK
1017,LB99,right,right,1,0.7781650919932872,right,1,valid,0.7345113326619624,0.2437698370620411,OK
1018,LB99,none,right,1,0.5686179449548945,right,1,neutral,0.7716613956494428,0.2299563121835134,OK
1019,LB99,left,left,0,0.4509588619694114,left,1,valid,0.7345113326619624,0.2437698370620411,OK
1020,LB99,right,left,0,0.512010196922347,left,1,invalid,0.7537437478937564,0.24844249026586113,OK
1021,LB99,right,right,1,0.4758604300441221,right,1,valid,0.7345113326619624,0.2437698370620411,OK
1022,LB99,left,left,0,0.4384094849228859,left,1,valid,0.7345113326619624,0.2437698370620411,OK
1023,LB99,none,left,0,0.5958604699699208,left,1,neutral,0.7716613956494428,0.2299563121835134,OK
1024,LB99,right,right,1,0.4952342179603874,right,1,valid,0.7345113326619624,0.2437698370620411,OK
1025,LB99,none,left,0,0.5007789250230417,left,1,neutral,0.7716613956494428,0.2299563121835134,OK
1026,LB99,none,left,0,0.63067831308580935,left,1,neutral,0.7716613956494428,0.2299563121835134,OK
1027,LB99,none,right,1,0.6181886900449172,right,1,neutral,0.7716613956494428,0.2299563121835134,OK
1028,LB99,none,left,0,0.5585498049622402,left,1,neutral,0.7716613956494428,0.2299563121835134,OK
1029,LB99,none,right,1,0.5616029249504209,right,1,neutral,0.7716613956494428,0.2299563121835134,OK
1030,LB99,left,left,0,0.417623124900274,left,1,valid,0.7345113326619624,0.2437698370620411,OK
1031,LB99,right,right,1,0.4110885699046776,right,1,valid,0.7345113326619624,0.2437698370620411,OK
1032,LB99,right,right,1,0.5078223799355328,right,1,valid,0.7345113326619624,0.2437698370620411,OK
1033,LB99,none,right,1,0.42149714299011976,right,1,neutral,0.7716613956494428,0.2299563121835134,OK
1034,LB99,left,left,0,0.3739936630008742,left,1,valid,0.7345113326619624,0.2437698370620411,OK
1035,LB99,none,right,1,0.5495566480094567,right,1,neutral,0.7716613956494428,0.2299563121835134,OK
1036,LB99,none,right,1,0.45121883996762335,right,1,neutral,0.7716613956494428,0.2299563121835134,OK
1037,LB99,left,left,0,0.5123394100228325,left,1,valid,0.7345113326619624,0.2437698370620411,OK
1038,LB99,left,left,0,0.3803406400838867,left,1,valid,0.7345113326619624,0.2437698370620411,OK
1039,LB99,none,left,0,0.6918415350373834,left,1,neutral,0.7716613956494428,0.2299563121835134,OK
