cue,direction,practice_block_loop.thisRepN,practice_block_loop.thisTrialN,practice_block_loop.thisN,practice_block_loop.thisIndex,main_blocks_loop.thisRepN,main_blocks_loop.thisTrialN,main_blocks_loop.thisN,main_blocks_loop.thisIndex,static_isi.started,static_isi.stopped,fixation_pre.started,fixation_pre.stopped,image.started,image.stopped,fixation_post.started,fixation_post.stopped,dots_background.started,dots_background.stopped,dots_stimulus.started,dots_stimulus.stopped,dots_keyboard_response.keys,dots_keyboard_response.rt,dots_keyboard_response.started,dots_keyboard_response.stopped,feedback_text.started,feedback_text.stopped,instruction_main_text.started,instruction_main_text.stopped,instruction_main_keyboard_response.keys,instruction_main_keyboard_response.rt,instruction_main_keyboard_response.started,instruction_main_keyboard_response.stopped,Pseudonym,date,expName,psychopyVersion,frameRate,
right,right,0,0,0,1,,,,,0.014884109958074987,1.014884109958075,33.6003800999606,None,34.07926269993186,None,34.9806910000043,None,38.99883559998125,None,38.99883559998125,None,j,1.0626320000737906,38.99883559998125,None,40.12350599991623,None,,,,,,,VP1,2022_Mar_07_1237,rdk-discrimination,2021.2.3,59.99689216525945,
none,left,0,1,1,4,,,,,0.011829869938082993,1.011829869938083,41.61109919997398,None,41.716590099968016,None,42.714270399999805,None,47.216411800007336,None,47.216411800007336,None,f,0.8153390999650583,47.216411800007336,None,48.05069469998125,None,,,,,,,VP1,2022_Mar_07_1237,rdk-discrimination,2021.2.3,59.99689216525945,
right,left,0,2,2,3,,,,,0.012555969879031181,1.0125559698790312,49.54604669997934,None,50.34734400000889,None,51.34748829994351,None,55.84852299990598,None,55.84852299990598,None,f,0.9968049000017345,55.84852299990598,None,56.86399639991578,None,,,,,,,VP1,2022_Mar_07_1237,rdk-discrimination,2021.2.3,59.99689216525945,
left,left,0,3,3,0,,,,,0.012992569943889976,1.01299256994389,58.34328269993421,None,59.5510533999186,None,60.54991790000349,None,63.96567669999786,None,63.96567669999786,None,j,0.7465088999597356,63.96567669999786,None,64.75738229998387,None,,,,,,,VP1,2022_Mar_07_1237,rdk-discrimination,2021.2.3,59.99689216525945,
none,right,0,4,4,5,,,,,0.01292697002645582,1.0129269700264558,66.24333909992129,None,67.04723759996705,None,68.04737489996478,None,72.04828149999958,None,72.04828149999958,None,j,1.0626003000652418,72.04828149999958,None,73.14130289992318,None,,,,,,,VP1,2022_Mar_07_1237,rdk-discrimination,2021.2.3,59.99689216525945,
left,right,0,5,5,2,,,,,0.012641869951039553,1.0126418699510396,74.62693649996072,None,74.73338370001875,None,75.73095659993123,None,80.23216409992892,None,80.23216409992892,None,j,0.9476563000353053,80.23216409992892,None,81.19739380001556,None,,,,,,,VP1,2022_Mar_07_1237,rdk-discrimination,2021.2.3,59.99689216525945,
,,,,,,,,,,,,,,,,,,,,,,,,,,,,81.69732049992308,None,space,3.662202800041996,81.69732049992308,None,VP1,2022_Mar_07_1237,rdk-discrimination,2021.2.3,59.99689216525945,
none,left,,,,,0,0,0,53,0.007405839976854622,1.0074058399768546,86.38318699994124,None,86.74708819994703,None,87.74706470000092,None,91.75048529997002,None,91.75048529997002,None,j,1.0618570999940857,91.75048529997002,None,92.85000809992198,None,,,,,,,VP1,2022_Mar_07_1237,rdk-discrimination,2021.2.3,59.99689216525945,
left,left,,,,,0,1,1,2,0.012038270011544228,1.0120382700115442,94.34410929994192,None,94.69976029999088,None,95.69716849992983,None,100.19874739996158,None,100.19874739996158,None,j,1.0096807000227273,100.19874739996158,None,101.23232740000822,None,,,,,,,VP1,2022_Mar_07_1237,rdk-discrimination,2021.2.3,59.99689216525945,
left,left,,,,,0,2,2,11,0.012825170066207647,1.0128251700662076,102.72845419996884,None,103.93074659991544,None,104.93035689997487,None,108.93161309999414,None,108.93161309999414,None,j,1.1535818999400362,108.93161309999414,None,110.11360589996912,None,,,,,,,VP1,2022_Mar_07_1237,rdk-discrimination,2021.2.3,59.99689216525945,
none,left,,,,,0,3,3,59,0.01271016988903284,1.0127101698890328,111.5934420999838,None,112.79687269998249,None,113.79689170001075,None,118.29816479992587,None,118.29816479992587,None,None,,118.29816479992587,None,119.81008119997568,None,,,,,,,VP1,2022_Mar_07_1237,rdk-discrimination,2021.2.3,59.99689216525945,
none,left,,,,,0,4,4,48,0.014707670081406832,1.0147076700814068,121.29373259993736,None,122.09676159999799,None,123.09680880000815,None,127.09798479999881,None,127.09798479999881,None,j,1.1372344000265002,127.09798479999881,None,128.27700669993646,None,,,,,,,VP1,2022_Mar_07_1237,rdk-discrimination,2021.2.3,59.99689216525945,
left,right,,,,,0,5,5,33,0.01276826998218894,1.012768269982189,129.7611445999937,None,130.11639869993087,None,131.113652799977,None,135.11508329992648,None,135.11508329992648,None,j,0.9681626999517903,135.11508329992648,None,136.10865229996853,None,,,,,,,VP1,2022_Mar_07_1237,rdk-discrimination,2021.2.3,59.99689216525945,
none,left,,,,,0,6,6,42,0.012741569895297289,1.0127415698952973,137.59645489999093,None,137.94717900000978,None,138.9467923999764,None,142.3477304999251,None,142.3477304999251,None,f,1.1474206000566483,142.3477304999251,None,143.51327409991063,None,,,,,,,VP1,2022_Mar_07_1237,rdk-discrimination,2021.2.3,59.99689216525945,
right,left,,,,,0,7,7,38,0.012934369849972427,1.0129343698499724,144.9920839999104,None,145.34661859995686,None,146.34685019997414,None,150.84784579998814,None,150.84784579998814,None,j,0.8974624000256881,150.84784579998814,None,151.77815049991477,None,,,,,,,VP1,2022_Mar_07_1237,rdk-discrimination,2021.2.3,59.99689216525945,
left,left,,,,,0,8,8,13,0.012527670012786984,1.012527670012787,153.25862330000382,None,153.61591809999663,None,154.61327949992847,None,159.6142851000186,None,159.6142851000186,None,f,1.1764825000427663,159.6142851000186,None,160.8235061999876,None,,,,,,,VP1,2022_Mar_07_1237,rdk-discrimination,2021.2.3,59.99689216525945,
right,right,,,,,0,9,9,30,0.012675670091994107,1.012675670091994,162.30909090000205,None,163.11466189997736,None,164.11307229998056,None,169.11427179991733,None,169.11427179991733,None,j,0.8273097999626771,169.11427179991733,None,169.9633063999936,None,,,,,,,VP1,2022_Mar_07_1237,rdk-discrimination,2021.2.3,59.99689216525945,
none,left,,,,,0,10,10,44,0.012886770069599152,1.0128867700695992,171.4420575000113,None,171.79660909995437,None,172.79662409995217,None,177.7976411000127,None,177.7976411000127,None,j,1.095858299988322,177.7976411000127,None,178.92759380000643,None,,,,,,,VP1,2022_Mar_07_1237,rdk-discrimination,2021.2.3,59.99689216525945,
none,right,,,,,0,11,11,79,0.012811869964934886,1.0128118699649349,180.40978139999788,None,180.51309089991264,None,181.51307330001146,None,184.91434559994377,None,184.91434559994377,None,j,0.9538939000340179,184.91434559994377,None,185.90812699997332,None,,,,,,,VP1,2022_Mar_07_1237,rdk-discrimination,2021.2.3,59.99689216525945,
left,left,,,,,0,12,12,5,0.013076870003715158,1.0130768700037152,187.3930278000189,None,188.19619919999968,None,189.1961341999704,None,193.69734119996428,None,193.69734119996428,None,f,1.2499623999465257,193.69734119996428,None,194.9640059999656,None,,,,,,,VP1,2022_Mar_07_1237,rdk-discrimination,2021.2.3,59.99689216525945,
none,left,,,,,0,13,13,56,0.01294756995048374,1.0129475699504837,196.4449481999036,None,196.54629909992218,None,197.54651040001772,None,200.94824759999756,None,200.94824759999756,None,None,,200.94824759999756,None,202.4535259999102,None,,,,,,,VP1,2022_Mar_07_1237,rdk-discrimination,2021.2.3,59.99689216525945,
none,right,,,,,0,14,14,73,0.014683569897897542,1.0146835698978975,203.94031709991395,None,204.74610599991865,None,205.74609459994826,None,210.24723839992657,None,210.24723839992657,None,j,1.045293000061065,210.24723839992657,None,211.32572409999557,None,,,,,,,VP1,2022_Mar_07_1237,rdk-discrimination,2021.2.3,59.99689216525945,
right,right,,,,,0,15,15,19,0.012473569950088859,1.0124735699500889,212.80987819994334,None,214.01556610001717,None,215.01230990001932,None,219.01381839998066,None,219.01381839998066,None,j,0.9617186000104994,219.01381839998066,None,219.9980390999699,None,,,,,,,VP1,2022_Mar_07_1237,rdk-discrimination,2021.2.3,59.99689216525945,
none,right,,,,,0,16,16,62,0.012875369982793927,1.012875369982794,221.49349409993738,None,222.29600600001868,None,223.29607379995286,None,228.29832679999527,None,228.29832679999527,None,j,1.4596197999780998,228.29832679999527,None,229.77919149992522,None,,,,,,,VP1,2022_Mar_07_1237,rdk-discrimination,2021.2.3,59.99689216525945,
none,right,,,,,0,17,17,68,0.012916569830849767,1.0129165698308498,231.2583523999201,None,232.06267779995687,None,233.0628629999701,None,236.46472539997194,None,236.46472539997194,None,f,1.0449420000659302,236.46472539997194,None,237.54615069995634,None,,,,,,,VP1,2022_Mar_07_1237,rdk-discrimination,2021.2.3,59.99689216525945,
left,right,,,,,0,18,18,34,0.012674169964157045,1.012674169964157,239.02526219992433,None,239.13214369991329,None,240.12917909992393,None,243.53087339992635,None,243.53087339992635,None,j,1.2853637000080198,243.53087339992635,None,244.854828099953,None,,,,,,,VP1,2022_Mar_07_1237,rdk-discrimination,2021.2.3,59.99689216525945,
none,left,,,,,0,19,19,43,0.012778069940395653,1.0127780699403957,246.3431804999709,None,247.1472514999332,None,248.14604229992256,None,251.54703879996669,None,251.54703879996669,None,f,0.8576049999101087,251.54703879996669,None,252.42917579994537,None,,,,,,,VP1,2022_Mar_07_1237,rdk-discrimination,2021.2.3,59.99689216525945,
right,left,,,,,0,20,20,37,0.01279367005918175,1.0127936700591817,253.91143779992126,None,254.26248529995792,None,255.26224309997633,None,259.2641751000192,None,259.2641751000192,None,f,1.2286990999709815,259.2641751000192,None,260.5122118999716,None,,,,,,,VP1,2022_Mar_07_1237,rdk-discrimination,2021.2.3,59.99689216525945,
right,left,,,,,0,21,21,39,0.012561569921672344,1.0125615699216723,261.9918153999606,None,262.3456228999421,None,263.34572009998374,None,268.34717309998814,None,268.34717309998814,None,j,1.282206799951382,268.34717309998814,None,269.6581218999345,None,,,,,,,VP1,2022_Mar_07_1237,rdk-discrimination,2021.2.3,59.99689216525945,
none,left,,,,,0,22,22,46,0.012647970113903284,1.0126479701139033,271.14156069990713,None,272.3455715000164,None,273.34570609999355,None,276.74674219998997,None,276.74674219998997,None,f,1.0839066000189632,276.74674219998997,None,277.85576969990507,None,,,,,,,VP1,2022_Mar_07_1237,rdk-discrimination,2021.2.3,59.99689216525945,
right,right,,,,,0,23,23,31,0.012705270084552467,1.0127052700845525,279.34323469991796,None,280.5461131000193,None,281.54544899996836,None,286.04713570000604,None,286.04713570000604,None,j,0.8031220999546349,286.04713570000604,None,286.87874569999985,None,,,,,,,VP1,2022_Mar_07_1237,rdk-discrimination,2021.2.3,59.99689216525945,
left,right,,,,,0,24,24,32,0.012782069854438305,1.0127820698544383,288.3599071999779,None,288.71245369990356,None,289.7122392000165,None,293.1132448000135,None,293.1132448000135,None,None,,293.1132448000135,None,294.61805149994325,None,,,,,,,VP1,2022_Mar_07_1237,rdk-discrimination,2021.2.3,59.99689216525945,
right,right,,,,,0,25,25,16,0.014715869911015034,1.014715869911015,296.10593089996837,None,296.4645883999765,None,297.46191539999563,None,301.96372100000735,None,301.96372100000735,None,j,0.9434410999529064,301.96372100000735,None,302.937495399965,None,,,,,,,VP1,2022_Mar_07_1237,rdk-discrimination,2021.2.3,59.99689216525945,
left,left,,,,,0,26,26,12,0.01272677001543343,1.0127267700154334,304.42675210000016,None,304.52857670001686,None,305.52864449995104,None,308.929837099975,None,308.929837099975,None,f,0.660815899958834,308.929837099975,None,309.61451729992405,None,,,,,,,VP1,2022_Mar_07_1237,rdk-discrimination,2021.2.3,59.99689216525945,
none,left,,,,,0,27,27,55,0.013122270000167191,1.0131222700001672,311.110544999945,None,312.3121947000036,None,313.3119992999127,None,318.31299249990843,None,318.31299249990843,None,f,0.9527990000788122,318.31299249990843,None,319.29516310000326,None,,,,,,,VP1,2022_Mar_07_1237,rdk-discrimination,2021.2.3,59.99689216525945,
left,right,,,,,0,28,28,35,0.012685769936069846,1.0126857699360698,320.77384199993685,None,321.9805959999794,None,322.9787750999676,None,327.9809215000132,None,327.9809215000132,None,j,0.7801693000365049,327.9809215000132,None,328.781453399919,None,,,,,,,VP1,2022_Mar_07_1237,rdk-discrimination,2021.2.3,59.99689216525945,
right,right,,,,,0,29,29,25,0.012821570038795471,1.0128215700387955,330.27375950000715,None,330.37840940000024,None,331.3786564000184,None,335.38199479994364,None,335.38199479994364,None,f,0.8792047000024468,335.38199479994364,None,336.28984320000745,None,,,,,,,VP1,2022_Mar_07_1237,rdk-discrimination,2021.2.3,59.99689216525945,
left,left,,,,,0,30,30,10,0.012884870055131614,1.0128848700551316,337.7741168999346,None,338.13070709991734,None,339.12868570000865,None,343.6300080999499,None,343.6300080999499,None,f,0.947859299951233,343.6300080999499,None,344.6048120999476,None,,,,,,,VP1,2022_Mar_07_1237,rdk-discrimination,2021.2.3,59.99689216525945,
right,right,,,,,0,31,31,27,0.012603069888427854,1.0126030698884279,346.0907838999992,None,346.8971826999914,None,347.8951404999243,None,352.3976935999235,None,352.3976935999235,None,j,0.7675737000536174,352.3976935999235,None,353.1950304999482,None,,,,,,,VP1,2022_Mar_07_1237,rdk-discrimination,2021.2.3,59.99689216525945,
none,left,,,,,0,32,32,40,0.01308676996268332,1.0130867699626833,354.67507220001426,None,355.87823129992466,None,356.87823729997035,None,361.3795387999853,None,361.3795387999853,None,f,0.8428106000646949,361.3795387999853,None,362.2449478999479,None,,,,,,,VP1,2022_Mar_07_1237,rdk-discrimination,2021.2.3,59.99689216525945,
none,right,,,,,0,33,33,65,0.012883469928056002,1.012883469928056,363.7259972000029,None,363.82828349992633,None,364.8283800999634,None,369.33195169991814,None,369.33195169991814,None,j,0.8762560000177473,369.33195169991814,None,370.23655489995144,None,,,,,,,VP1,2022_Mar_07_1237,rdk-discrimination,2021.2.3,59.99689216525945,
none,left,,,,,0,34,34,41,0.01260096998885274,1.0126009699888527,371.7249136000173,None,372.9289449999342,None,373.92848040000536,None,378.4296128000133,None,378.4296128000133,None,f,0.7675182999810204,378.4296128000133,None,379.2123984999489,None,,,,,,,VP1,2022_Mar_07_1237,rdk-discrimination,2021.2.3,59.99689216525945,
none,right,,,,,0,35,35,72,0.012801870005205274,1.0128018700052053,380.6906763999723,None,381.0447051000083,None,382.0446486999281,None,387.04579989996273,None,387.04579989996273,None,j,0.8265376000199467,387.04579989996273,None,387.895921099931,None,,,,,,,VP1,2022_Mar_07_1237,rdk-discrimination,2021.2.3,59.99689216525945,
none,right,,,,,0,36,36,71,0.012936569866724312,1.0129365698667243,389.3923966999864,None,390.1948527999921,None,391.1950575999217,None,396.1964971999405,None,396.1964971999405,None,f,0.9280908999498934,396.1964971999405,None,397.15909299999475,None,,,,,,,VP1,2022_Mar_07_1237,rdk-discrimination,2021.2.3,59.99689216525945,
right,right,,,,,0,37,37,28,0.012660569977015257,1.0126605699770153,398.6409338999074,None,398.7468256999273,None,399.7446511000162,None,404.74566639994737,None,404.74566639994737,None,j,0.9738111000042409,404.74566639994737,None,405.7470481999917,None,,,,,,,VP1,2022_Mar_07_1237,rdk-discrimination,2021.2.3,59.99689216525945,
right,right,,,,,0,38,38,22,0.014068969991058111,1.0140689699910581,407.240077800001,None,408.0442640999099,None,409.04431499994826,None,414.0468322999077,None,414.0468322999077,None,j,0.9794260000344366,414.0468322999077,None,415.0474069999764,None,,,,,,,VP1,2022_Mar_07_1237,rdk-discrimination,2021.2.3,59.99689216525945,
none,right,,,,,0,39,39,75,0.01276796986348927,1.0127679698634893,416.54278389993124,None,416.8943948999513,None,417.8943979999749,None,421.8954056999646,None,421.8954056999646,None,f,0.849994899937883,421.8954056999646,None,422.77335169992875,None,,,,,,,VP1,2022_Mar_07_1237,rdk-discrimination,2021.2.3,59.99689216525945,
left,left,,,,,0,40,40,3,0.012702570063993335,1.0127025700639933,424.2564665999962,None,425.0621491000056,None,426.06111329991836,None,430.06313449994195,None,430.06313449994195,None,f,0.9459978000959381,430.06313449994195,None,431.0415304999333,None,,,,,,,VP1,2022_Mar_07_1237,rdk-discrimination,2021.2.3,59.99689216525945,
right,right,,,,,0,41,41,29,0.012710370006971061,1.012710370006971,432.5280807999661,None,432.6299886999186,None,433.6277188999811,None,437.62873100000434,None,437.62873100000434,None,j,0.9108042999869213,437.62873100000434,None,438.5618957999395,None,,,,,,,VP1,2022_Mar_07_1237,rdk-discrimination,2021.2.3,59.99689216525945,
none,right,,,,,0,42,42,70,0.012847770005464554,1.0128477700054646,440.03980069991667,None,440.39424439996947,None,441.39434589992743,None,446.3967067999765,None,446.3967067999765,None,f,1.0687794999685138,446.3967067999765,None,447.5075988000026,None,,,,,,,VP1,2022_Mar_07_1237,rdk-discrimination,2021.2.3,59.99689216525945,
left,left,,,,,0,43,43,9,0.012848170008510351,1.0128481700085104,448.99019259994384,None,449.7966863999609,None,450.7943680000026,None,455.79626530001406,None,455.79626530001406,None,j,1.4459189999615774,455.79626530001406,None,457.2639985999558,None,,,,,,,VP1,2022_Mar_07_1237,rdk-discrimination,2021.2.3,59.99689216525945,
none,right,,,,,0,44,44,60,0.012625070055946708,1.0126250700559467,458.75683849991765,None,458.8607151999604,None,459.86058390000835,None,464.361719999928,None,464.361719999928,None,j,1.010873100021854,464.361719999928,None,465.4039676999673,None,,,,,,,VP1,2022_Mar_07_1237,rdk-discrimination,2021.2.3,59.99689216525945,
none,right,,,,,0,45,45,66,0.012959069921635091,1.012959069921635,466.89055839995854,None,466.99395829997957,None,467.9941906000022,None,472.9962715000147,None,472.9962715000147,None,f,1.027083299937658,472.9962715000147,None,474.05878299998585,None,,,,,,,VP1,2022_Mar_07_1237,rdk-discrimination,2021.2.3,59.99689216525945,
none,right,,,,,0,46,46,61,0.01297266990877688,1.0129726699087769,475.54167890001554,None,476.3440123000182,None,477.3441082999343,None,481.8459210000001,None,481.8459210000001,None,j,0.5277465999824926,481.8459210000001,None,482.40789609996136,None,,,,,,,VP1,2022_Mar_07_1237,rdk-discrimination,2021.2.3,59.99689216525945,
left,left,,,,,0,47,47,1,0.012473969953134656,1.0124739699531347,483.8942127999617,None,483.9956333999289,None,484.9938047999749,None,489.99503749993164,None,489.99503749993164,None,f,0.9169324000831693,489.99503749993164,None,490.92787519993726,None,,,,,,,VP1,2022_Mar_07_1237,rdk-discrimination,2021.2.3,59.99689216525945,
none,left,,,,,0,48,48,52,0.012841369956731796,1.0128413699567318,492.40586880000774,None,493.2105444999179,None,494.2106403999496,None,498.7148848999059,None,498.7148848999059,None,f,1.358852699981071,498.7148848999059,None,500.09609140001703,None,,,,,,,VP1,2022_Mar_07_1237,rdk-discrimination,2021.2.3,59.99689216525945,
none,right,,,,,0,49,49,77,0.012857769965194166,1.0128577699651942,501.5890272000106,None,502.3947725999169,None,503.39391230000183,None,507.89747329999227,None,507.89747329999227,None,j,1.2397887000115588,507.89747329999227,None,509.16228339995723,None,,,,,,,VP1,2022_Mar_07_1237,rdk-discrimination,2021.2.3,59.99689216525945,
none,right,,,,,0,50,50,63,0.012390770018100739,1.0123907700181007,510.6594963999232,None,511.46195669996087,None,512.4605081999907,None,516.9615824999055,None,516.9615824999055,None,f,0.7551538000116125,516.9615824999055,None,517.7540024999762,None,,,,,,,VP1,2022_Mar_07_1237,rdk-discrimination,2021.2.3,59.99689216525945,
none,right,,,,,0,51,51,76,0.012322969967499375,1.0123229699674994,519.239784299978,None,519.3450096999295,None,520.3436729999958,None,523.7469212999567,None,523.7469212999567,None,j,0.9611090000253171,523.7469212999567,None,524.7349325999385,None,,,,,,,VP1,2022_Mar_07_1237,rdk-discrimination,2021.2.3,59.99689216525945,
none,right,,,,,0,52,52,64,0.01244686997961253,1.0124468699796125,526.2250278999563,None,526.577332799905,None,527.5768879000098,None,532.0785482999636,None,532.0785482999636,None,f,0.9644414000213146,532.0785482999636,None,533.0728365000105,None,,,,,,,VP1,2022_Mar_07_1237,rdk-discrimination,2021.2.3,59.99689216525945,
left,left,,,,,0,53,53,4,0.012547470047138631,1.0125474700471386,534.555512299994,None,534.9128597999224,None,535.9102435999084,None,539.9113828999689,None,539.9113828999689,None,j,0.8993412000127137,539.9113828999689,None,540.8300622999668,None,,,,,,,VP1,2022_Mar_07_1237,rdk-discrimination,2021.2.3,59.99689216525945,
none,left,,,,,0,54,54,51,0.012487769941799343,1.0124877699417993,542.325092199957,None,542.4271131999558,None,543.426675499999,None,547.9278746999335,None,547.9278746999335,None,j,0.877369900001213,547.9278746999335,None,548.8279183999402,None,,,,,,,VP1,2022_Mar_07_1237,rdk-discrimination,2021.2.3,59.99689216525945,
left,left,,,,,0,55,55,14,0.012773569906130433,1.0127735699061304,550.3248224999988,None,550.6766766000073,None,551.6767152999528,None,555.0779407999944,None,555.0779407999944,None,f,1.0631923000328243,555.0779407999944,None,556.1748624999309,None,,,,,,,VP1,2022_Mar_07_1237,rdk-discrimination,2021.2.3,59.99689216525945,
none,left,,,,,0,56,56,58,0.012723269988782704,1.0127232699887827,557.6557335999096,None,558.0116525999038,None,559.0100297000026,None,563.5116607999662,None,563.5116607999662,None,j,0.9442960999440402,563.5116607999662,None,564.487652999931,None,,,,,,,VP1,2022_Mar_07_1237,rdk-discrimination,2021.2.3,59.99689216525945,
right,right,,,,,0,57,57,20,0.012681770022027194,1.0126817700220272,565.9738121000119,None,567.176661000005,None,568.1768242999678,None,572.6780476999702,None,572.6780476999702,None,j,1.3132914999732748,572.6780476999702,None,574.0218934000004,None,,,,,,,VP1,2022_Mar_07_1237,rdk-discrimination,2021.2.3,59.99689216525945,
none,right,,,,,0,58,58,67,0.012394870049320161,1.0123948700493202,575.5054422999965,None,575.85977859993,None,576.8599678999744,None,580.2608755999245,None,580.2608755999245,None,j,1.1426426999969408,580.2608755999245,None,581.4270741000073,None,,,,,,,VP1,2022_Mar_07_1237,rdk-discrimination,2021.2.3,59.99689216525945,
left,left,,,,,0,59,59,15,0.012920469976961613,1.0129204699769616,582.9073383999057,None,584.1109125999501,None,585.109797299956,None,588.5114413999254,None,588.5114413999254,None,j,1.0961769999703392,588.5114413999254,None,589.6415283000097,None,,,,,,,VP1,2022_Mar_07_1237,rdk-discrimination,2021.2.3,59.99689216525945,
right,right,,,,,0,60,60,23,0.01281256997026503,1.012812569970265,591.1226300999988,None,591.9262874999549,None,592.9265761999413,None,596.9276157999411,None,596.9276157999411,None,j,0.7754680999787524,596.9276157999411,None,597.7375653999625,None,,,,,,,VP1,2022_Mar_07_1237,rdk-discrimination,2021.2.3,59.99689216525945,
none,left,,,,,0,61,61,54,0.012945369933731854,1.0129453699337319,599.2238640999421,None,599.5764575999929,None,600.5763240999077,None,605.0774336999748,None,605.0774336999748,None,j,1.4127893999684602,605.0774336999748,None,606.5248167999089,None,,,,,,,VP1,2022_Mar_07_1237,rdk-discrimination,2021.2.3,59.99689216525945,
none,right,,,,,0,62,62,69,0.012468770146369934,1.01246877014637,608.0093844999792,None,608.8109597999137,None,609.8094846999738,None,613.8122970999684,None,613.8122970999684,None,f,0.9942403000313789,613.8122970999684,None,614.8299856999656,None,,,,,,,VP1,2022_Mar_07_1237,rdk-discrimination,2021.2.3,59.99689216525945,
left,left,,,,,0,63,63,0,0.012968569877557456,1.0129685698775575,616.3235263999086,None,616.6767425999278,None,617.6762570999563,None,622.1772876000032,None,622.1772876000032,None,j,1.2775318999774754,622.1772876000032,None,623.4774430999532,None,,,,,,,VP1,2022_Mar_07_1237,rdk-discrimination,2021.2.3,59.99689216525945,
right,left,,,,,0,64,64,36,0.012642869958654046,1.012642869958654,624.9742414999055,None,625.326396599994,None,626.3259242000058,None,629.7286047999514,None,629.7286047999514,None,f,1.1461806999286637,629.7286047999514,None,630.9074835999636,None,,,,,,,VP1,2022_Mar_07_1237,rdk-discrimination,2021.2.3,59.99689216525945,
right,right,,,,,0,65,65,18,0.01286166999489069,1.0128616699948907,632.3904620999238,None,633.194968399941,None,634.1928528000135,None,639.1966757000191,None,639.1966757000191,None,j,0.8032483999850228,639.1966757000191,None,640.0286252999213,None,,,,,,,VP1,2022_Mar_07_1237,rdk-discrimination,2021.2.3,59.99689216525945,
right,right,,,,,0,66,66,21,0.012043670052662492,1.0120436700526625,641.5255302999867,None,641.8762318999507,None,642.8760235999944,None,647.3771739999065,None,647.3771739999065,None,j,0.93609179998748,647.3771739999065,None,648.3440713000018,None,,,,,,,VP1,2022_Mar_07_1237,rdk-discrimination,2021.2.3,59.99689216525945,
left,left,,,,,0,67,67,6,0.012685469933785498,1.0126854699337855,649.8406578999711,None,649.9428083999082,None,650.9424952999689,None,655.9442928999197,None,655.9442928999197,None,f,0.9945188999408856,655.9442928999197,None,656.9601531999651,None,,,,,,,VP1,2022_Mar_07_1237,rdk-discrimination,2021.2.3,59.99689216525945,
none,left,,,,,0,68,68,45,0.012677569990046322,1.0126775699900463,658.438499599928,None,659.6426473999163,None,660.6427899999544,None,664.643957399996,None,664.643957399996,None,f,0.9036329999798909,664.643957399996,None,665.5776971000014,None,,,,,,,VP1,2022_Mar_07_1237,rdk-discrimination,2021.2.3,59.99689216525945,
none,left,,,,,0,69,69,57,0.012004269985482097,1.012004269985482,667.0728807999985,None,667.1757187999319,None,668.1758037999971,None,673.1769862999208,None,673.1769862999208,None,j,0.7369859999744222,673.1769862999208,None,673.9570609999355,None,,,,,,,VP1,2022_Mar_07_1237,rdk-discrimination,2021.2.3,59.99689216525945,
left,left,,,,,0,70,70,7,0.012918970081955194,1.0129189700819552,675.4405899000121,None,676.2467289000051,None,677.2425282999175,None,681.743463999941,None,681.743463999941,None,j,1.0159044000320137,681.743463999941,None,682.7767595999176,None,,,,,,,VP1,2022_Mar_07_1237,rdk-discrimination,2021.2.3,59.99689216525945,
left,left,,,,,0,71,71,8,0.012587869889102876,1.0125878698891029,684.2708640999626,None,685.0755286999047,None,686.0757298999233,None,689.478366299998,None,689.478366299998,None,f,1.1752183999633417,689.478366299998,None,690.6876544000115,None,,,,,,,VP1,2022_Mar_07_1237,rdk-discrimination,2021.2.3,59.99689216525945,
none,left,,,,,0,72,72,49,0.01265846996102482,1.0126584699610248,692.1724417000078,None,692.9755247000139,None,693.9756075999467,None,698.9768925999524,None,698.9768925999524,None,j,0.9231523999478668,698.9768925999524,None,699.9358820999041,None,,,,,,,VP1,2022_Mar_07_1237,rdk-discrimination,2021.2.3,59.99689216525945,
right,right,,,,,0,73,73,17,0.012697770027443767,1.0126977700274438,701.4232280999422,None,702.6254455000162,None,703.6254788999213,None,707.6265221999492,None,707.6265221999492,None,f,1.1953470000298694,707.6265221999492,None,708.8436910000164,None,,,,,,,VP1,2022_Mar_07_1237,rdk-discrimination,2021.2.3,59.99689216525945,
none,right,,,,,0,74,74,74,0.012732069939374924,1.012732069939375,710.3387779999757,None,711.542113799951,None,712.5421553999186,None,715.9436139999889,None,715.9436139999889,None,f,1.1551631999900565,715.9436139999889,None,717.1276231999509,None,,,,,,,VP1,2022_Mar_07_1237,rdk-discrimination,2021.2.3,59.99689216525945,
right,right,,,,,0,75,75,26,0.012689669849351048,1.012689669849351,718.6214498999761,None,718.7252767999889,None,719.7252445999766,None,723.1270973999053,None,723.1270973999053,None,j,1.0166501000057906,723.1270973999053,None,724.1707497999305,None,,,,,,,VP1,2022_Mar_07_1237,rdk-discrimination,2021.2.3,59.99689216525945,
none,left,,,,,0,76,76,50,0.01280676992610097,1.012806769926101,725.6546947999159,None,726.8592699000146,None,727.8589016000042,None,732.3602012000047,None,732.3602012000047,None,f,1.1464278999483213,732.3602012000047,None,733.5275931999786,None,,,,,,,VP1,2022_Mar_07_1237,rdk-discrimination,2021.2.3,59.99689216525945,
right,right,,,,,0,77,77,24,0.012689670082181692,1.0126896700821817,735.0234409999102,None,735.8261425999226,None,736.8252196999965,None,741.8267328999937,None,741.8267328999937,None,j,0.7560320000629872,741.8267328999937,None,742.6100325000007,None,,,,,,,VP1,2022_Mar_07_1237,rdk-discrimination,2021.2.3,59.99689216525945,
none,right,,,,,0,78,78,78,0.012485769926570356,1.0124857699265704,744.1067604999989,None,745.308596399962,None,746.3087186999619,None,749.7094618999399,None,749.7094618999399,None,j,1.262934900005348,749.7094618999399,None,750.9928962999256,None,,,,,,,VP1,2022_Mar_07_1237,rdk-discrimination,2021.2.3,59.99689216525945,
none,left,,,,,0,79,79,47,0.012669069925323129,1.0126690699253231,752.4891635999084,None,753.6919688999187,None,754.6917988999048,None,758.0943882999709,None,758.0943882999709,None,j,1.2275344000663608,758.0943882999709,None,759.3548263999401,None,,,,,,,VP1,2022_Mar_07_1237,rdk-discrimination,2021.2.3,59.99689216525945,
none,left,,,,,1,0,80,53,0.01270746998488903,1.012707469984889,760.837584599969,None,761.1936678999336,None,762.1915849999059,None,767.1928977000061,None,767.1928977000061,None,f,1.3586917000357062,767.1928977000061,None,768.5840743000153,None,,,,,,,VP1,2022_Mar_07_1237,rdk-discrimination,2021.2.3,59.99689216525945,
right,right,,,,,1,1,81,22,0.012716770055703819,1.0127167700557038,770.0732630999992,None,770.1753786999034,None,771.1748948999448,None,775.1775117999641,None,775.1775117999641,None,j,1.1477847000351176,775.1775117999641,None,776.3433448999422,None,,,,,,,VP1,2022_Mar_07_1237,rdk-discrimination,2021.2.3,59.99689216525945,
none,right,,,,,1,2,82,64,0.012854969943873584,1.0128549699438736,777.8367445999756,None,777.9415912999539,None,778.9416700999718,None,782.9492678999668,None,782.9492678999668,None,j,1.4232998999068514,782.9492678999668,None,784.3936971999938,None,,,,,,,VP1,2022_Mar_07_1237,rdk-discrimination,2021.2.3,59.99689216525945,
none,right,,,,,1,3,83,71,0.012523069977760315,1.0125230699777603,785.887387799914,None,787.0914543999825,None,788.0917451999849,None,793.0929139999207,None,793.0929139999207,None,f,1.1593377999961376,793.0929139999207,None,794.2858288999414,None,,,,,,,VP1,2022_Mar_07_1237,rdk-discrimination,2021.2.3,59.99689216525945,
right,right,,,,,1,4,84,16,0.012721069972030818,1.0127210699720308,795.77121669997,None,796.1245796999428,None,797.1246800000081,None,801.6257715999382,None,801.6257715999382,None,j,1.3057341000530869,801.6257715999382,None,802.9661216000095,None,,,,,,,VP1,2022_Mar_07_1237,rdk-discrimination,2021.2.3,59.99689216525945,
left,left,,,,,1,5,85,2,0.012709769885987043,1.012709769885987,804.4540603999048,None,804.558059199946,None,805.5581749000121,None,809.5601873999694,None,809.5601873999694,None,f,1.082587799988687,809.5601873999694,None,810.6602039999561,None,,,,,,,VP1,2022_Mar_07_1237,rdk-discrimination,2021.2.3,59.99689216525945,
none,right,,,,,1,6,86,78,0.012856770073994994,1.012856770073995,812.1536181999836,None,812.5079623999773,None,813.5079837999074,None,818.5121899999212,None,818.5121899999212,None,f,1.159864200046286,818.5121899999212,None,819.7037137999432,None,,,,,,,VP1,2022_Mar_07_1237,rdk-discrimination,2021.2.3,59.99689216525945,
right,right,,,,,1,7,87,20,0.012782170088030398,1.0127821700880304,821.1896084999898,None,821.5436448999681,None,822.5411542999791,None,827.0428159999428,None,827.0428159999428,None,j,1.0276725000003353,827.0428159999428,None,828.1018510999857,None,,,,,,,VP1,2022_Mar_07_1237,rdk-discrimination,2021.2.3,59.99689216525945,
none,left,,,,,1,8,88,47,0.012813269859179854,1.0128132698591799,829.5902740999591,None,830.7911031999392,None,831.7913419000106,None,836.2925808000145,None,836.2925808000145,None,f,1.4275281000882387,836.2925808000145,None,837.7429538000142,None,,,,,,,VP1,2022_Mar_07_1237,rdk-discrimination,2021.2.3,59.99689216525945,
none,left,,,,,1,9,89,42,0.012898669927380979,1.012898669927381,839.2368014999665,None,840.4410281999735,None,841.4411189999664,None,845.9423406999558,None,845.9423406999558,None,j,1.3135015999432653,845.9423406999558,None,847.2858268999262,None,,,,,,,VP1,2022_Mar_07_1237,rdk-discrimination,2021.2.3,59.99689216525945,
none,left,,,,,1,10,90,56,0.012699669925495982,1.012699669925496,848.7713519999525,None,849.9741809999105,None,850.9744291999377,None,854.3753892999375,None,854.3753892999375,None,j,1.0825977999484167,854.3753892999375,None,855.4742851000046,None,,,,,,,VP1,2022_Mar_07_1237,rdk-discrimination,2021.2.3,59.99689216525945,
right,right,,,,,1,11,91,26,0.012788770021870732,1.0127887700218707,856.9546345999697,None,857.309685699991,None,858.3077734999824,None,862.3117454999592,None,862.3117454999592,None,j,0.8767207999480888,862.3117454999592,None,863.2198759999592,None,,,,,,,VP1,2022_Mar_07_1237,rdk-discrimination,2021.2.3,59.99689216525945,
left,left,,,,,1,12,92,7,0.012728369911201298,1.0127283699112013,864.705320399953,None,865.508101799991,None,866.5073818999808,None,869.9085919999052,None,869.9085919999052,None,f,1.2950462000444531,869.9085919999052,None,871.2249770999188,None,,,,,,,VP1,2022_Mar_07_1237,rdk-discrimination,2021.2.3,59.99689216525945,
right,left,,,,,1,13,93,37,0.012797669973224401,1.0127976699732244,872.7030507000163,None,873.5073583999183,None,874.5076010000193,None,877.9090356999077,None,877.9090356999077,None,f,1.1286604999331757,877.9090356999077,None,879.0578735999297,None,,,,,,,VP1,2022_Mar_07_1237,rdk-discrimination,2021.2.3,59.99689216525945,
left,left,,,,,1,14,94,0,0.012838969938457012,1.012838969938457,880.5384789999807,None,880.8906128999079,None,881.8906530999811,None,885.292348899995,None,885.292348899995,None,f,1.2855105999624357,885.292348899995,None,886.6072287999559,None,,,,,,,VP1,2022_Mar_07_1237,rdk-discrimination,2021.2.3,59.99689216525945,
right,right,,,,,1,15,95,28,0.012809969834052026,1.012809969834052,888.0874333999818,None,889.2914241999388,None,890.2909530999605,None,893.6926903999411,None,893.6926903999411,None,j,1.1150498000206426,893.6926903999411,None,894.8274514999939,None,,,,,,,VP1,2022_Mar_07_1237,rdk-discrimination,2021.2.3,59.99689216525945,
none,right,,,,,1,16,96,67,0.012725769891403615,1.0127257698914036,896.3205128000118,None,896.6738882999634,None,897.6738541999366,None,902.1749256999465,None,902.1749256999465,None,f,1.1616344000212848,902.1749256999465,None,903.3690486999694,None,,,,,,,VP1,2022_Mar_07_1237,rdk-discrimination,2021.2.3,59.99689216525945,
none,left,,,,,1,17,97,46,0.012894569896161556,1.0128945698961616,904.8525833999738,None,905.2073372999439,None,906.2071036999114,None,910.7086748000002,None,910.7086748000002,None,f,1.1767293999437243,910.7086748000002,None,911.917003099923,None,,,,,,,VP1,2022_Mar_07_1237,rdk-discrimination,2021.2.3,59.99689216525945,
right,right,,,,,1,18,98,31,0.012787869898602366,1.0127878698986024,913.4045095000183,None,913.7570386999287,None,914.7571695999941,None,919.7588145999471,None,919.7588145999471,None,f,1.1955795000540093,919.7588145999471,None,920.9888891999144,None,,,,,,,VP1,2022_Mar_07_1237,rdk-discrimination,2021.2.3,59.99689216525945,
left,left,,,,,1,19,99,11,0.013024170068092644,1.0130241700680926,922.4690117000137,None,923.6772381999763,None,924.6739743999206,None,928.0750491999788,None,928.0750491999788,None,f,1.4399435999803245,928.0750491999788,None,929.5514031999046,None,,,,,,,VP1,2022_Mar_07_1237,rdk-discrimination,2021.2.3,59.99689216525945,
none,right,,,,,1,20,100,79,0.011844569933600724,1.0118445699336007,931.0386699999217,None,931.3902858999791,None,932.3904854999855,None,936.8913843999617,None,936.8913843999617,None,j,1.112620999920182,936.8913843999617,None,938.0241612999234,None,,,,,,,VP1,2022_Mar_07_1237,rdk-discrimination,2021.2.3,59.99689216525945,
none,left,,,,,1,21,101,54,0.012806469923816621,1.0128064699238166,939.5048481000122,None,940.7071740999818,None,941.7069135999773,None,946.2086575999856,None,946.2086575999856,None,f,1.3186475000111386,946.2086575999856,None,947.5567900999449,None,,,,,,,VP1,2022_Mar_07_1237,rdk-discrimination,2021.2.3,59.99689216525945,
none,left,,,,,1,22,102,43,0.012806370039470494,1.0128063700394705,949.036314799916,None,949.3901471999707,None,950.3904120000079,None,955.3917465999257,None,955.3917465999257,None,f,1.2630445999093354,955.3917465999257,None,956.6760670999065,None,,,,,,,VP1,2022_Mar_07_1237,rdk-discrimination,2021.2.3,59.99689216525945,
left,left,,,,,1,23,103,5,0.012422669911757112,1.0124226699117571,958.1697198000038,None,958.2733347999165,None,959.2732957999688,None,964.2760725999251,None,964.2760725999251,None,None,,964.2760725999251,None,965.7796378999483,None,,,,,,,VP1,2022_Mar_07_1237,rdk-discrimination,2021.2.3,59.99689216525945,
left,left,,,,,1,24,104,13,0.014362070010975003,1.014362070010975,967.2696784000145,None,968.073435899918,None,969.0732546999352,None,973.0767576999497,None,973.0767576999497,None,f,1.1435908999992535,973.0767576999497,None,974.2529003999662,None,,,,,,,VP1,2022_Mar_07_1237,rdk-discrimination,2021.2.3,59.99689216525945,
none,left,,,,,1,25,105,59,0.012415769975632429,1.0124157699756324,975.7355124999303,None,976.5399208000163,None,977.5401400999399,None,982.5417501999764,None,982.5417501999764,None,f,1.001663599978201,982.5417501999764,None,983.560043699923,None,,,,,,,VP1,2022_Mar_07_1237,rdk-discrimination,2021.2.3,59.99689216525945,
right,right,,,,,1,26,106,18,0.012874069856479764,1.0128740698564798,985.0519081999082,None,986.2588322999654,None,987.2569005999248,None,991.7586816999828,None,991.7586816999828,None,j,1.3946317000081763,991.7586816999828,None,993.1756511999993,None,,,,,,,VP1,2022_Mar_07_1237,rdk-discrimination,2021.2.3,59.99689216525945,
none,right,,,,,1,27,107,74,0.012599469977431,1.012599469977431,994.6708298999583,None,995.8730763999047,None,996.8732778999256,None,1000.2742596999742,None,1000.2742596999742,None,f,1.2451401998987421,1000.2742596999742,None,1001.5532883999404,None,,,,,,,VP1,2022_Mar_07_1237,rdk-discrimination,2021.2.3,59.99689216525945,
none,right,,,,,1,28,108,72,0.012919069849886,1.012919069849886,1003.0358166999649,None,1004.2399763999274,None,1005.2397744000191,None,1008.6416120999493,None,1008.6416120999493,None,None,,1008.6416120999493,None,1010.1456959999632,None,,,,,,,VP1,2022_Mar_07_1237,rdk-discrimination,2021.2.3,59.99689216525945,
none,left,,,,,1,29,109,51,0.014685769914649427,1.0146857699146494,1011.6350121999858,None,1011.9897111000028,None,1012.9897837999742,None,1017.4909278999548,None,1017.4909278999548,None,f,0.8780562999891117,1017.4909278999548,None,1018.3996599999955,None,,,,,,,VP1,2022_Mar_07_1237,rdk-discrimination,2021.2.3,59.99689216525945,
left,left,,,,,1,30,110,9,0.012679170002229512,1.0126791700022295,1019.8852480999194,None,1021.0894857000094,None,1022.0896727999207,None,1026.5906953999074,None,1026.5906953999074,None,f,0.9097584000555798,1026.5906953999074,None,1027.5228778999299,None,,,,,,,VP1,2022_Mar_07_1237,rdk-discrimination,2021.2.3,59.99689216525945,
none,right,,,,,1,31,111,61,0.012846169993281364,1.0128461699932814,1029.0038517999928,None,1029.3562910999171,None,1030.3563422999578,None,1034.8590592999244,None,1034.8590592999244,None,j,1.352790299919434,1034.8590592999244,None,1036.241591500002,None,,,,,,,VP1,2022_Mar_07_1237,rdk-discrimination,2021.2.3,59.99689216525945,
none,left,,,,,1,32,112,55,0.012826770078390837,1.0128267700783908,1037.7351763999322,None,1037.8403157999273,None,1038.839585699956,None,1043.340656699962,None,1043.340656699962,None,f,1.2618737999582663,1043.340656699962,None,1044.6239326999057,None,,,,,,,VP1,2022_Mar_07_1237,rdk-discrimination,2021.2.3,59.99689216525945,
none,left,,,,,1,33,113,48,0.012693469994701445,1.0126934699947014,1046.1199855000013,None,1046.4730106999632,None,1047.472689099959,None,1050.8743241999764,None,1050.8743241999764,None,f,1.3794801000040025,1050.8743241999764,None,1052.2751037999988,None,,,,,,,VP1,2022_Mar_07_1237,rdk-discrimination,2021.2.3,59.99689216525945,
none,left,,,,,1,34,114,41,0.012837069923989475,1.0128370699239895,1053.767955499934,None,1054.122628799989,None,1055.1227686000057,None,1059.123690099921,None,1059.123690099921,None,f,1.0695978000294417,1059.123690099921,None,1060.2225427000085,None,,,,,,,VP1,2022_Mar_07_1237,rdk-discrimination,2021.2.3,59.99689216525945,
right,right,,,,,1,35,115,30,0.012693769880570471,1.0126937698805705,1061.7036594999954,None,1061.8060146999778,None,1062.8058424999472,None,1067.3076869999059,None,1067.3076869999059,None,j,0.9475436999928206,1067.3076869999059,None,1068.275079099927,None,,,,,,,VP1,2022_Mar_07_1237,rdk-discrimination,2021.2.3,59.99689216525945,
none,right,,,,,1,36,116,62,0.012636970030143857,1.0126369700301439,1069.7679751999676,None,1069.8725106999045,None,1070.8726370999357,None,1074.8735376999248,None,1074.8735376999248,None,f,0.9485049999784678,1074.8735376999248,None,1075.8547950999346,None,,,,,,,VP1,2022_Mar_07_1237,rdk-discrimination,2021.2.3,59.99689216525945,
none,left,,,,,1,37,117,50,0.012912369915284216,1.0129123699152842,1077.3346978999907,None,1077.4392695999704,None,1078.4395148999756,None,1082.4408122999594,None,1082.4408122999594,None,f,1.0805842999834567,1082.4408122999594,None,1083.5519215000095,None,,,,,,,VP1,2022_Mar_07_1237,rdk-discrimination,2021.2.3,59.99689216525945,
left,right,,,,,1,38,118,35,0.012828569975681603,1.0128285699756816,1085.0373517000116,None,1085.3913024999201,None,1086.3891372999642,None,1091.3913007999072,None,1091.3913007999072,None,j,1.325437399907969,1091.3913007999072,None,1092.740629900014,None,,,,,,,VP1,2022_Mar_07_1237,rdk-discrimination,2021.2.3,59.99689216525945,
left,left,,,,,1,39,119,14,0.012713769916445017,1.012713769916445,1094.2361598999705,None,1094.5895865999628,None,1095.5890752999112,None,1100.5902522999095,None,1100.5902522999095,None,None,,1100.5902522999095,None,1102.0952049000189,None,,,,,,,VP1,2022_Mar_07_1237,rdk-discrimination,2021.2.3,59.99689216525945,
left,left,,,,,1,40,120,1,0.014636969892308116,1.0146369698923081,1103.582449199981,None,1104.7915962999687,None,1105.7888970999047,None,1109.7915995999938,None,1109.7915995999938,None,j,1.1292863000417128,1109.7915995999938,None,1110.9599310000194,None,,,,,,,VP1,2022_Mar_07_1237,rdk-discrimination,2021.2.3,59.99689216525945,
left,left,,,,,1,41,121,8,0.011963470024056733,1.0119634700240567,1112.4544196999632,None,1112.5562788000097,None,1113.5554945999756,None,1116.9574610999553,None,1116.9574610999553,None,f,1.3177021999144927,1116.9574610999553,None,1118.3166656999383,None,,,,,,,VP1,2022_Mar_07_1237,rdk-discrimination,2021.2.3,59.99689216525945,
none,left,,,,,1,42,122,44,0.012736669857986271,1.0127366698579863,1119.8016232999507,None,1120.6085112999426,None,1121.6055270999204,None,1125.6065484000137,None,1125.6065484000137,None,f,1.0285372000653297,1125.6065484000137,None,1126.6564070999157,None,,,,,,,VP1,2022_Mar_07_1237,rdk-discrimination,2021.2.3,59.99689216525945,
none,left,,,,,1,43,123,57,0.012640369939617813,1.0126403699396178,1128.1516277999617,None,1128.9561478999676,None,1129.955495800008,None,1133.9574738999363,None,1133.9574738999363,None,f,1.0340724000707269,1133.9574738999363,None,1135.0079459999688,None,,,,,,,VP1,2022_Mar_07_1237,rdk-discrimination,2021.2.3,59.99689216525945,
left,left,,,,,1,44,124,12,0.012763269944116473,1.0127632699441165,1136.5009275999619,None,1136.855749999988,None,1137.8552333000116,None,1142.856377899996,None,1142.856377899996,None,f,1.007694000029005,1142.856377899996,None,1143.888656899915,None,,,,,,,VP1,2022_Mar_07_1237,rdk-discrimination,2021.2.3,59.99689216525945,
none,right,,,,,1,45,125,65,0.012755769887007773,1.0127557698870078,1145.3697609999217,None,1145.7220624999609,None,1146.7220382000087,None,1150.1234802999534,None,1150.1234802999534,None,j,1.111753600067459,1150.1234802999534,None,1151.2582797999494,None,,,,,,,VP1,2022_Mar_07_1237,rdk-discrimination,2021.2.3,59.99689216525945,
none,left,,,,,1,46,126,40,0.012741569895297289,1.0127415698952973,1152.7517878999934,None,1153.5551321000094,None,1154.5552005999489,None,1158.5561804999597,None,1158.5561804999597,None,f,0.9798863000469282,1158.5561804999597,None,1159.5573227999266,None,,,,,,,VP1,2022_Mar_07_1237,rdk-discrimination,2021.2.3,59.99689216525945,
none,right,,,,,1,47,127,69,0.012384869973175228,1.0123848699731752,1161.051701999968,None,1161.1552341999486,None,1162.1554175999481,None,1166.1565100000007,None,1166.1565100000007,None,j,1.4040350000141189,1166.1565100000007,None,1167.5887046999997,None,,,,,,,VP1,2022_Mar_07_1237,rdk-discrimination,2021.2.3,59.99689216525945,
none,right,,,,,1,48,128,70,0.01282456994522363,1.0128245699452236,1169.0676253999118,None,1169.1715338999638,None,1170.1718025999144,None,1175.17286219995,None,1175.17286219995,None,f,1.1299004999455065,1175.17286219995,None,1176.3334323000163,None,,,,,,,VP1,2022_Mar_07_1237,rdk-discrimination,2021.2.3,59.99689216525945,
right,right,,,,,1,49,129,23,0.012612569844350219,1.0126125698443502,1177.817655099905,None,1178.171983200009,None,1179.1716591999866,None,1182.5731668999651,None,1182.5731668999651,None,f,1.2525109000271186,1182.5731668999651,None,1183.8555383000057,None,,,,,,,VP1,2022_Mar_07_1237,rdk-discrimination,2021.2.3,59.99689216525945,
left,right,,,,,1,50,130,32,0.012848170008510351,1.0128481700085104,1185.3338020999217,None,1185.688198299962,None,1186.6884061999153,None,1190.6892425999977,None,1190.6892425999977,None,j,0.8355011000530794,1190.6892425999977,None,1191.566616499913,None,,,,,,,VP1,2022_Mar_07_1237,rdk-discrimination,2021.2.3,59.99689216525945,
right,right,,,,,1,51,131,29,0.012357369996607304,1.0123573699966073,1193.0549999999348,None,1193.8547823999543,None,1194.8549692999804,None,1198.2566201000009,None,1198.2566201000009,None,j,0.9934436999028549,1198.2566201000009,None,1199.271560999914,None,,,,,,,VP1,2022_Mar_07_1237,rdk-discrimination,2021.2.3,59.99689216525945,
none,right,,,,,1,52,132,66,0.01287036994472146,1.0128703699447215,1200.7514734999277,None,1201.9555956999538,None,1202.9547981999349,None,1207.9566509999568,None,1207.9566509999568,None,f,0.9253418000880629,1207.9566509999568,None,1208.9208111999324,None,,,,,,,VP1,2022_Mar_07_1237,rdk-discrimination,2021.2.3,59.99689216525945,
right,left,,,,,1,53,133,39,0.012777569936588407,1.0127775699365884,1210.4005523999222,None,1210.7546695999335,None,1211.7547806999646,None,1216.756631999975,None,1216.756631999975,None,f,1.3340511999558657,1216.756631999975,None,1218.1184617999243,None,,,,,,,VP1,2022_Mar_07_1237,rdk-discrimination,2021.2.3,59.99689216525945,
left,right,,,,,1,54,134,33,0.01270446996204555,1.0127044699620456,1219.6003660999704,None,1220.404546799953,None,1221.4047338999808,None,1225.9057619000087,None,1225.9057619000087,None,j,0.8869861999992281,1225.9057619000087,None,1226.8213650999824,None,,,,,,,VP1,2022_Mar_07_1237,rdk-discrimination,2021.2.3,59.99689216525945,
none,left,,,,,1,55,135,45,0.012757470016367733,1.0127574700163677,1228.3002383999992,None,1229.5049417999107,None,1230.5044764999766,None,1235.5056153999176,None,1235.5056153999176,None,f,1.1361259000841528,1235.5056153999176,None,1236.6711279000156,None,,,,,,,VP1,2022_Mar_07_1237,rdk-discrimination,2021.2.3,59.99689216525945,
left,left,,,,,1,56,136,10,0.012824569828808308,1.0128245698288083,1238.1499394999119,None,1238.5082800999517,None,1239.5045658999588,None,1243.5060820999788,None,1243.5060820999788,None,f,1.0822215999942273,1243.5060820999788,None,1244.6076043999055,None,,,,,,,VP1,2022_Mar_07_1237,rdk-discrimination,2021.2.3,59.99689216525945,
left,left,,,,,1,57,137,6,0.01270006992854178,1.0127000699285418,1246.1008396999678,None,1246.4549614000134,None,1247.4543556999415,None,1251.4572455999441,None,1251.4572455999441,None,j,0.9591352000134066,1251.4572455999441,None,1252.451732799993,None,,,,,,,VP1,2022_Mar_07_1237,rdk-discrimination,2021.2.3,59.99689216525945,
none,right,,,,,1,58,138,77,0.012812869972549379,1.0128128699725494,1253.9332192000002,None,1254.0377110999543,None,1255.0378119999077,None,1260.0404323999537,None,1260.0404323999537,None,j,1.1153029000852257,1260.0404323999537,None,1261.18386869994,None,,,,,,,VP1,2022_Mar_07_1237,rdk-discrimination,2021.2.3,59.99689216525945,
none,left,,,,,1,59,139,58,0.01218896999489516,1.0121889699948952,1262.6688084999332,None,1263.0208752999315,None,1264.021127999993,None,1268.0221663999837,None,1268.0221663999837,None,f,0.8738355000969023,1268.0221663999837,None,1268.9211182999425,None,,,,,,,VP1,2022_Mar_07_1237,rdk-discrimination,2021.2.3,59.99689216525945,
none,right,,,,,1,60,140,73,0.012870669947005808,1.0128706699470058,1270.4009104999714,None,1270.7544764999766,None,1271.754487499944,None,1275.7563476999057,None,1275.7563476999057,None,j,1.07411459996365,1275.7563476999057,None,1276.856588399969,None,,,,,,,VP1,2022_Mar_07_1237,rdk-discrimination,2021.2.3,59.99689216525945,
right,right,,,,,1,61,141,19,0.012740869889967144,1.0127408698899671,1278.3515856999438,None,1278.4540812999476,None,1279.4542828999693,None,1283.4554185000015,None,1283.4554185000015,None,f,0.986094200052321,1283.4554185000015,None,1284.4800935999956,None,,,,,,,VP1,2022_Mar_07_1237,rdk-discrimination,2021.2.3,59.99689216525945,
right,right,,,,,1,62,142,25,0.012763169943355024,1.012763169943355,1285.9662977999542,None,1286.7711940999143,None,1287.77076330001,None,1291.772560399957,None,1291.772560399957,None,j,0.7968230000697076,1291.772560399957,None,1292.5971904000035,None,,,,,,,VP1,2022_Mar_07_1237,rdk-discrimination,2021.2.3,59.99689216525945,
left,left,,,,,1,63,143,3,0.01283036987297237,1.0128303698729724,1294.0832804999081,None,1294.187745400006,None,1295.1874605999328,None,1299.6884314999916,None,1299.6884314999916,None,f,0.9400733000366017,1299.6884314999916,None,1300.65397939994,None,,,,,,,VP1,2022_Mar_07_1237,rdk-discrimination,2021.2.3,59.99689216525945,
left,right,,,,,1,64,144,34,0.012955169891938567,1.0129551698919386,1302.1350324999075,None,1302.4874165999936,None,1303.4874340000097,None,1307.4894168999745,None,1307.4894168999745,None,f,0.9859890999505296,1307.4894168999745,None,1308.5232650999678,None,,,,,,,VP1,2022_Mar_07_1237,rdk-discrimination,2021.2.3,59.99689216525945,
none,left,,,,,1,65,145,52,0.012769070104695857,1.0127690701046959,1310.0161215999397,None,1311.2211887999438,None,1312.2208412999753,None,1315.6217752000084,None,1315.6217752000084,None,f,1.0775023999158293,1315.6217752000084,None,1316.729573299992,None,,,,,,,VP1,2022_Mar_07_1237,rdk-discrimination,2021.2.3,59.99689216525945,
left,left,,,,,1,66,146,4,0.012778169941157103,1.012778169941157,1318.2164031999419,None,1318.5738154000137,None,1319.5705989999697,None,1323.572193,None,1323.572193,None,f,1.3123080999357626,1323.572193,None,1324.9049346999964,None,,,,,,,VP1,2022_Mar_07_1237,rdk-discrimination,2021.2.3,59.99689216525945,
none,right,,,,,1,67,147,60,0.012799969990737736,1.0127999699907377,1326.399234100012,None,1327.6039349999046,None,1328.6041052999208,None,1332.606546199997,None,1332.606546199997,None,j,1.1447918999474496,1332.606546199997,None,1333.7740515000187,None,,,,,,,VP1,2022_Mar_07_1237,rdk-discrimination,2021.2.3,59.99689216525945,
none,right,,,,,1,68,148,75,0.012741470010951161,1.0127414700109512,1335.2680916999234,None,1336.4704531999305,None,1337.4706043999176,None,1341.9729016999481,None,1341.9729016999481,None,j,1.440996399964206,1341.9729016999481,None,1343.437480899971,None,,,,,,,VP1,2022_Mar_07_1237,rdk-discrimination,2021.2.3,59.99689216525945,
right,right,,,,,1,69,149,17,0.012300570029765368,1.0123005700297654,1344.9199341000058,None,1345.0203326999908,None,1346.0203091999283,None,1350.0221572999144,None,1350.0221572999144,None,f,1.3629727000370622,1350.0221572999144,None,1351.4161369999638,None,,,,,,,VP1,2022_Mar_07_1237,rdk-discrimination,2021.2.3,59.99689216525945,
left,left,,,,,1,70,150,15,0.012825069949030876,1.0128250699490309,1352.8990516000194,None,1353.0041116999928,None,1354.0035554999486,None,1358.5178412999958,None,1358.5178412999958,None,f,0.9047867999179289,1358.5178412999958,None,1359.4630571999587,None,,,,,,,VP1,2022_Mar_07_1237,rdk-discrimination,2021.2.3,59.99689216525945,
right,right,,,,,1,71,151,24,0.010514069930650294,1.0105140699306503,1360.9518100999994,None,1361.0595214999048,None,1362.0540033999132,None,1367.0548974999692,None,1367.0548974999692,None,f,1.0614011998986825,1367.0548974999692,None,1368.1473465999588,None,,,,,,,VP1,2022_Mar_07_1237,rdk-discrimination,2021.2.3,59.99689216525945,
right,right,,,,,1,72,152,27,0.012966369977220893,1.012966369977221,1369.6326870999765,None,1370.4371238999302,None,1371.4366807999322,None,1375.4384696999332,None,1375.4384696999332,None,j,1.3183442999143153,1375.4384696999332,None,1376.797755299951,None,,,,,,,VP1,2022_Mar_07_1237,rdk-discrimination,2021.2.3,59.99689216525945,
none,right,,,,,1,73,153,63,0.012757370015606284,1.0127573700156063,1378.2820131999906,None,1378.6367682999698,None,1379.636871799943,None,1384.6387060999405,None,1384.6387060999405,None,f,1.2428302000043914,1384.6387060999405,None,1385.9182284999406,None,,,,,,,VP1,2022_Mar_07_1237,rdk-discrimination,2021.2.3,59.99689216525945,
none,left,,,,,1,74,154,49,0.01267077005468309,1.012670770054683,1387.399748899974,None,1387.7542093999218,None,1388.7533893999644,None,1393.7544715999393,None,1393.7544715999393,None,f,1.0826115000527352,1393.7544715999393,None,1394.8623130000196,None,,,,,,,VP1,2022_Mar_07_1237,rdk-discrimination,2021.2.3,59.99689216525945,
right,right,,,,,1,75,155,21,0.012718969956040382,1.0127189699560404,1396.348896899959,None,1397.5570566999959,None,1398.5533980999608,None,1403.5544308999088,None,1403.5544308999088,None,j,1.0125920999562368,1403.5544308999088,None,1404.5887468999717,None,,,,,,,VP1,2022_Mar_07_1237,rdk-discrimination,2021.2.3,59.99689216525945,
right,left,,,,,1,76,156,36,0.013016570010222495,1.0130165700102225,1406.0822732999222,None,1407.2873552999226,None,1408.286515799933,None,1411.6880374000175,None,1411.6880374000175,None,f,0.9195904999505728,1411.6880374000175,None,1412.6398943999084,None,,,,,,,VP1,2022_Mar_07_1237,rdk-discrimination,2021.2.3,59.99689216525945,
right,left,,,,,1,77,157,38,0.012876769993454218,1.0128767699934542,1414.1328792999266,None,1414.9363036999712,None,1415.9364674999379,None,1419.3374019999756,None,1419.3374019999756,None,j,1.4120312000159174,1419.3374019999756,None,1420.7815779999364,None,,,,,,,VP1,2022_Mar_07_1237,rdk-discrimination,2021.2.3,59.99689216525945,
none,right,,,,,1,78,158,68,0.012374070007354021,1.012374070007354,1422.2674103999743,None,1422.619801199995,None,1423.6196906999685,None,1427.0218580999644,None,1427.0218580999644,None,j,1.3941297000274062,1427.0218580999644,None,1428.4459982999833,None,,,,,,,VP1,2022_Mar_07_1237,rdk-discrimination,2021.2.3,59.99689216525945,
none,right,,,,,1,79,159,76,0.012756070005707443,1.0127560700057074,1429.931597799994,None,1430.2862272999482,None,1431.2863056999631,None,1436.2875200000126,None,1436.2875200000126,None,None,,1436.2875200000126,None,1437.7951136999764,None,,,,,,,VP1,2022_Mar_07_1237,rdk-discrimination,2021.2.3,59.99689216525945,
