cue,direction,practice_block_loop.thisRepN,practice_block_loop.thisTrialN,practice_block_loop.thisN,practice_block_loop.thisIndex,main_blocks_loop.thisRepN,main_blocks_loop.thisTrialN,main_blocks_loop.thisN,main_blocks_loop.thisIndex,static_isi.started,static_isi.stopped,fixation_pre.started,fixation_pre.stopped,image.started,image.stopped,fixation_post.started,fixation_post.stopped,dots_background.started,dots_background.stopped,dots_stimulus.started,dots_stimulus.stopped,dots_keyboard_response.keys,dots_keyboard_response.started,dots_keyboard_response.stopped,feedback_text.started,feedback_text.stopped,dots_keyboard_response.rt,instruction_main_text.started,instruction_main_text.stopped,instruction_main_keyboard_response.keys,instruction_main_keyboard_response.rt,instruction_main_keyboard_response.started,instruction_main_keyboard_response.stopped,Pseudonym,date,expName,psychopyVersion,frameRate,
right,left,0,0,0,3,,,,,0.0063730200054124,1.0063730200054124,26.42215900006704,None,26.90639470005408,None,27.801101400051266,None,32.82823800004553,None,32.82823800004553,None,None,32.82823800004553,None,34.32206989999395,None,,,,,,,,VP2,2022_Mar_07_1302,rdk-discrimination,2021.2.3,59.998980037511906,
left,right,0,1,1,2,,,,,0.014244859921745956,1.014244859921746,35.79684220009949,None,36.152910500066355,None,37.15091210009996,None,42.15206940006465,None,42.15206940006465,None,f,42.15206940006465,None,42.55983909999486,None,0.34295710001606494,,,,,,,VP2,2022_Mar_07_1302,rdk-discrimination,2021.2.3,59.998980037511906,
none,right,0,2,2,5,,,,,0.012865660013630986,1.012865660013631,44.048232500092126,None,44.85208270000294,None,45.85084560001269,None,50.35232140007429,None,50.35232140007429,None,j,50.35232140007429,None,51.43539300002158,None,1.0503424999769777,,,,,,,VP2,2022_Mar_07_1302,rdk-discrimination,2021.2.3,59.998980037511906,
left,left,0,3,3,0,,,,,0.012646159972064197,1.0126461599720642,52.92916040006094,None,53.73406420007814,None,54.7342278000433,None,59.23536330007482,None,59.23536330007482,None,f,59.23536330007482,None,60.18421289999969,None,0.9193625000771135,,,,,,,VP2,2022_Mar_07_1302,rdk-discrimination,2021.2.3,59.998980037511906,
right,right,0,4,4,1,,,,,0.012191259884275496,1.0121912598842755,61.66677420004271,None,62.8695096001029,None,63.867596200085245,None,68.86913640005514,None,68.86913640005514,None,j,68.86913640005514,None,70.15246940008365,None,1.2564573000418022,,,,,,,VP2,2022_Mar_07_1302,rdk-discrimination,2021.2.3,59.998980037511906,
none,left,0,5,5,4,,,,,0.012554559973068535,1.0125545599730685,71.64933060004842,None,72.4506441000849,None,73.45077430002857,None,77.95178500004113,None,77.95178500004113,None,f,77.95178500004113,None,78.85202370001934,None,0.8831753999693319,,,,,,,VP2,2022_Mar_07_1302,rdk-discrimination,2021.2.3,59.998980037511906,
,,,,,,,,,,,,,,,,,,,,,,,,,,,,79.36743350001052,None,space,5.143997399951331,79.36743350001052,None,VP2,2022_Mar_07_1302,rdk-discrimination,2021.2.3,59.998980037511906,
right,right,,,,,0,0,0,26,0.004449820029549301,1.0044498200295493,85.53952650004067,None,86.75304590002634,None,87.75086860009469,None,92.25424480007496,None,92.25424480007496,None,j,92.25424480007496,None,93.48815710004419,None,1.214310200070031,,,,,,,VP2,2022_Mar_07_1302,rdk-discrimination,2021.2.3,59.998980037511906,
none,right,,,,,0,1,1,63,0.012154359952546656,1.0121543599525467,94.97926769999322,None,95.33386510005221,None,96.33388859999832,None,100.83489040005952,None,100.83489040005952,None,f,100.83489040005952,None,102.21253070002422,None,1.3452737999614328,,,,,,,VP2,2022_Mar_07_1302,rdk-discrimination,2021.2.3,59.998980037511906,
none,left,,,,,0,2,2,46,0.01269926002714783,1.0126992600271478,103.69906370004173,None,104.05142590007745,None,105.0504915000638,None,108.45210690004751,None,108.45210690004751,None,None,108.45210690004751,None,109.95398420002311,None,,,,,,,,VP2,2022_Mar_07_1302,rdk-discrimination,2021.2.3,59.998980037511906,
left,right,,,,,0,3,3,35,0.014558260096237063,1.014558260096237,111.44649030000437,None,112.65045360010117,None,113.65058370004408,None,118.15219080005772,None,118.15219080005772,None,f,118.15219080005772,None,119.3141947000986,None,1.1181240000296384,,,,,,,VP2,2022_Mar_07_1302,rdk-discrimination,2021.2.3,59.998980037511906,
none,left,,,,,0,4,4,57,0.012776359915733337,1.0127763599157333,120.79614380002022,None,121.60122390009928,None,122.60031300003175,None,127.10146590007935,None,127.10146590007935,None,f,127.10146590007935,None,128.49565590010025,None,1.3597594000166282,,,,,,,VP2,2022_Mar_07_1302,rdk-discrimination,2021.2.3,59.998980037511906,
left,left,,,,,0,5,5,14,0.012689959956333041,1.012689959956333,129.97992350009736,None,130.08371760009322,None,131.08345999999437,None,135.58513360004872,None,135.58513360004872,None,f,135.58513360004872,None,137.01929460000247,None,1.4130593000445515,,,,,,,VP2,2022_Mar_07_1302,rdk-discrimination,2021.2.3,59.998980037511906,
right,right,,,,,0,6,6,20,0.012770759989507496,1.0127707599895075,138.51280120003503,None,138.61711860005744,None,139.61672030005138,None,144.1182522000745,None,144.1182522000745,None,j,144.1182522000745,None,145.067873800057,None,0.9278025000821799,,,,,,,VP2,2022_Mar_07_1302,rdk-discrimination,2021.2.3,59.998980037511906,
right,right,,,,,0,7,7,23,0.01280286000110209,1.012802860001102,146.5620180000551,None,146.66665270004887,None,147.66675960004795,None,151.06770470004994,None,151.06770470004994,None,j,151.06770470004994,None,152.5509153000312,None,1.4661134000634775,,,,,,,VP2,2022_Mar_07_1302,rdk-discrimination,2021.2.3,59.998980037511906,
none,right,,,,,0,8,8,60,0.012639360036700964,1.012639360036701,154.030167000019,None,154.38351680000778,None,155.38321840006392,None,158.78663870005403,None,158.78663870005403,None,j,158.78663870005403,None,160.0364499000134,None,1.227981899981387,,,,,,,VP2,2022_Mar_07_1302,rdk-discrimination,2021.2.3,59.998980037511906,
none,right,,,,,0,9,9,77,0.012629959965124726,1.0126299599651247,161.52914050000254,None,161.88323510007467,None,162.88315760006662,None,167.88462430005893,None,167.88462430005893,None,f,167.88462430005893,None,168.94488060008734,None,1.028002299950458,,,,,,,VP2,2022_Mar_07_1302,rdk-discrimination,2021.2.3,59.998980037511906,
right,right,,,,,0,10,10,29,0.012007559998892248,1.0120075599988922,170.43253460002597,None,170.5360988000175,None,171.53316790005192,None,176.5349961000029,None,176.5349961000029,None,j,176.5349961000029,None,177.62784900004044,None,1.051892300019972,,,,,,,VP2,2022_Mar_07_1302,rdk-discrimination,2021.2.3,59.998980037511906,
left,right,,,,,0,11,11,33,0.012378059909678996,1.012378059909679,179.11394460010342,None,179.91632130008657,None,180.9166482000146,None,185.41755460004788,None,185.41755460004788,None,f,185.41755460004788,None,186.86277380003594,None,1.4147837000200525,,,,,,,VP2,2022_Mar_07_1302,rdk-discrimination,2021.2.3,59.998980037511906,
right,right,,,,,0,12,12,27,0.012625159928575158,1.0126251599285752,188.34496770007536,None,188.69963110005483,None,189.69978920009453,None,193.7008881000802,None,193.7008881000802,None,j,193.7008881000802,None,194.6461583999917,None,0.9171986000146717,,,,,,,VP2,2022_Mar_07_1302,rdk-discrimination,2021.2.3,59.998980037511906,
none,left,,,,,0,13,13,50,0.012875059968791902,1.012875059968792,196.13007280009333,None,197.33362730010413,None,198.33303040009923,None,202.83401590003632,None,202.83401590003632,None,f,202.83401590003632,None,203.86741589999292,None,1.0128941000439227,,,,,,,VP2,2022_Mar_07_1302,rdk-discrimination,2021.2.3,59.998980037511906,
none,right,,,,,0,14,14,79,0.012761859921738505,1.0127618599217385,205.36296470009256,None,205.7163797999965,None,206.71632410003804,None,210.11868660000619,None,210.11868660000619,None,j,210.11868660000619,None,210.98615370003972,None,0.8480152999982238,,,,,,,VP2,2022_Mar_07_1302,rdk-discrimination,2021.2.3,59.998980037511906,
none,right,,,,,0,15,15,65,0.012471560039557517,1.0124715600395575,212.4794173000846,None,213.68278460006695,None,214.68300650001038,None,219.6851047000382,None,219.6851047000382,None,j,219.6851047000382,None,220.55281630007084,None,0.8482508999295533,,,,,,,VP2,2022_Mar_07_1302,rdk-discrimination,2021.2.3,59.998980037511906,
none,left,,,,,0,16,16,56,0.012673059944063425,1.0126730599440634,222.04759160010144,None,222.3995009000646,None,223.39975500002038,None,227.90119230002165,None,227.90119230002165,None,f,227.90119230002165,None,229.01753710000776,None,1.0922939999727532,,,,,,,VP2,2022_Mar_07_1302,rdk-discrimination,2021.2.3,59.998980037511906,
right,left,,,,,0,17,17,39,0.01279675995465368,1.0127967599546537,230.5143795000622,None,231.71609170001466,None,232.71632300002966,None,236.71735839999747,None,236.71735839999747,None,j,236.71735839999747,None,237.66167900001165,None,0.9078804000746459,,,,,,,VP2,2022_Mar_07_1302,rdk-discrimination,2021.2.3,59.998980037511906,
none,right,,,,,0,18,18,73,0.012634359998628497,1.0126343599986285,239.1474241000833,None,240.3493864000775,None,241.34933510003611,None,245.85025140002836,None,245.85025140002836,None,f,245.85025140002836,None,246.73374870000407,None,0.8639937000116333,,,,,,,VP2,2022_Mar_07_1302,rdk-discrimination,2021.2.3,59.998980037511906,
none,right,,,,,0,19,19,70,0.012938460102304816,1.0129384601023048,248.2281620000722,None,249.03296480001882,None,250.0328050000826,None,254.53455700003542,None,254.53455700003542,None,j,254.53455700003542,None,255.1980716000544,None,0.6282439000206068,,,,,,,VP2,2022_Mar_07_1302,rdk-discrimination,2021.2.3,59.998980037511906,
none,left,,,,,0,20,20,43,0.012560560018755496,1.0125605600187555,256.6805217000656,None,256.7842548000626,None,257.78272200003266,None,262.78358100005426,None,262.78358100005426,None,f,262.78358100005426,None,263.4178495000815,None,0.6133579999441281,,,,,,,VP2,2022_Mar_07_1302,rdk-discrimination,2021.2.3,59.998980037511906,
none,right,,,,,0,21,21,66,0.012666160007938743,1.0126661600079387,264.91191260004416,None,265.71607720002066,None,266.7158153000055,None,271.2167387000518,None,271.2167387000518,None,f,271.2167387000518,None,272.162271700101,None,0.9077730999561027,,,,,,,VP2,2022_Mar_07_1302,rdk-discrimination,2021.2.3,59.998980037511906,
none,left,,,,,0,22,22,49,0.013037260039709508,1.0130372600397095,273.64385089999996,None,274.4490692000836,None,275.4493339000037,None,279.95056350005325,None,279.95056350005325,None,j,279.95056350005325,None,280.95196090009995,None,0.9784051000606269,,,,,,,VP2,2022_Mar_07_1302,rdk-discrimination,2021.2.3,59.998980037511906,
left,left,,,,,0,23,23,8,0.012737359968014061,1.012737359968014,282.4472855000058,None,283.64883870002814,None,284.6490866000531,None,288.6500990000786,None,288.6500990000786,None,f,288.6500990000786,None,289.9631212000968,None,1.2697129000443965,,,,,,,VP2,2022_Mar_07_1302,rdk-discrimination,2021.2.3,59.998980037511906,
none,right,,,,,0,24,24,69,0.012572260107845068,1.012572260107845,291.4450941000832,None,292.64964330010116,None,293.6489285000134,None,297.05038270005025,None,297.05038270005025,None,j,297.05038270005025,None,298.36608290008735,None,1.3007800000486895,,,,,,,VP2,2022_Mar_07_1302,rdk-discrimination,2021.2.3,59.998980037511906,
none,left,,,,,0,25,25,55,0.012667160131968558,1.0126671601319686,299.8447371000657,None,300.64886220009066,None,301.6488722000504,None,306.15080890001263,None,306.15080890001263,None,f,306.15080890001263,None,307.3335619000718,None,1.1604441000381485,,,,,,,VP2,2022_Mar_07_1302,rdk-discrimination,2021.2.3,59.998980037511906,
left,left,,,,,0,26,26,10,0.01266775990370661,1.0126677599037066,308.82789489999413,None,310.0319507000968,None,311.0322279999964,None,315.53359500004444,None,315.53359500004444,None,f,315.53359500004444,None,316.79919869999867,None,1.2399008000502363,,,,,,,VP2,2022_Mar_07_1302,rdk-discrimination,2021.2.3,59.998980037511906,
left,left,,,,,0,27,27,6,0.012663260102272034,1.012663260102272,318.28007159999106,None,318.6322293000994,None,319.63196790008806,None,324.63298330002,None,324.63298330002,None,f,324.63298330002,None,325.5829269000096,None,0.9283696999773383,,,,,,,VP2,2022_Mar_07_1302,rdk-discrimination,2021.2.3,59.998980037511906,
none,left,,,,,0,28,28,40,0.012728460016660392,1.0127284600166604,327.0608268000651,None,327.1652224001009,None,328.1654619000619,None,333.1675511000212,None,333.1675511000212,None,j,333.1675511000212,None,334.4283502000617,None,1.226815399946645,,,,,,,VP2,2022_Mar_07_1302,rdk-discrimination,2021.2.3,59.998980037511906,
left,left,,,,,0,29,29,9,0.0128014599904418,1.0128014599904418,335.9135750000132,None,336.0150326000294,None,337.01528550009243,None,342.0163753000088,None,342.0163753000088,None,f,342.0163753000088,None,342.9601202000631,None,0.9026586000109091,,,,,,,VP2,2022_Mar_07_1302,rdk-discrimination,2021.2.3,59.998980037511906,
none,right,,,,,0,30,30,67,0.012537959963083267,1.0125379599630833,344.4448150000535,None,344.5488493000157,None,345.5483741000062,None,350.0501657000277,None,350.0501657000277,None,j,350.0501657000277,None,350.9330259000417,None,0.8641842000652105,,,,,,,VP2,2022_Mar_07_1302,rdk-discrimination,2021.2.3,59.998980037511906,
right,left,,,,,0,31,31,37,0.012618459993973374,1.0126184599939734,352.42780330008827,None,352.78166670002975,None,353.78181880002376,None,357.18285830004606,None,357.18285830004606,None,j,357.18285830004606,None,358.4097447000677,None,1.1960856000659987,,,,,,,VP2,2022_Mar_07_1302,rdk-discrimination,2021.2.3,59.998980037511906,
none,left,,,,,0,32,32,52,0.01267556007951498,1.012675560079515,359.8941905000247,None,360.24852670007385,None,361.24827520002145,None,364.6526203000685,None,364.6526203000685,None,f,364.6526203000685,None,365.5473933001049,None,0.8648664000211284,,,,,,,VP2,2022_Mar_07_1302,rdk-discrimination,2021.2.3,59.998980037511906,
left,left,,,,,0,33,33,12,0.012392860022373497,1.0123928600223735,367.02758270001505,None,367.3837009000126,None,368.3817600000184,None,372.8826510000508,None,372.8826510000508,None,f,372.8826510000508,None,373.78357790003065,None,0.8764720000326633,,,,,,,VP2,2022_Mar_07_1302,rdk-discrimination,2021.2.3,59.998980037511906,
right,right,,,,,0,34,34,22,0.0125556600978598,1.0125556600978598,375.27906960004475,None,376.0817146000918,None,377.08153310010675,None,382.08258280006703,None,382.08258280006703,None,j,382.08258280006703,None,383.0312947999919,None,0.9254346999805421,,,,,,,VP2,2022_Mar_07_1302,rdk-discrimination,2021.2.3,59.998980037511906,
none,right,,,,,0,35,35,74,0.012555159977637231,1.0125551599776372,384.5101582000498,None,384.8647808000678,None,385.8648522000294,None,389.86747670010664,None,389.86747670010664,None,j,389.86747670010664,None,390.71479760005604,None,0.8247213999275118,,,,,,,VP2,2022_Mar_07_1302,rdk-discrimination,2021.2.3,59.998980037511906,
left,left,,,,,0,36,36,13,0.0127701599849388,1.0127701599849388,392.1934015000006,None,393.39809510007035,None,394.3983159000054,None,397.79946240002755,None,397.79946240002755,None,f,397.79946240002755,None,398.5332660001004,None,0.7124531000154093,,,,,,,VP2,2022_Mar_07_1302,rdk-discrimination,2021.2.3,59.998980037511906,
left,left,,,,,0,37,37,7,0.012626759940758348,1.0126267599407583,400.0270148999989,None,400.83127510000486,None,401.83124670002144,None,406.3323442999972,None,406.3323442999972,None,f,406.3323442999972,None,407.1480308000464,None,0.8010462999809533,,,,,,,VP2,2022_Mar_07_1302,rdk-discrimination,2021.2.3,59.998980037511906,
left,left,,,,,0,38,38,5,0.012653559911996126,1.0126535599119961,408.63078370003495,None,409.8315974000143,None,410.8316188000608,None,415.83301480009686,None,415.83301480009686,None,j,415.83301480009686,None,416.5777977000689,None,0.7134472000179812,,,,,,,VP2,2022_Mar_07_1302,rdk-discrimination,2021.2.3,59.998980037511906,
none,left,,,,,0,39,39,44,0.012790060020051897,1.012790060020052,418.05983110005036,None,418.86452170007396,None,419.86464929999784,None,424.36767840001266,None,424.36767840001266,None,f,424.36767840001266,None,425.576548900106,None,1.1757586000021547,,,,,,,VP2,2022_Mar_07_1302,rdk-discrimination,2021.2.3,59.998980037511906,
right,right,,,,,0,40,40,19,0.012128260103054345,1.0121282601030543,427.0614138999954,None,428.2651451000711,None,429.26457650004886,None,434.2673751000548,None,434.2673751000548,None,j,434.2673751000548,None,435.2181061001029,None,0.9294490000465885,,,,,,,VP2,2022_Mar_07_1302,rdk-discrimination,2021.2.3,59.998980037511906,
left,left,,,,,0,41,41,11,0.012632759986445308,1.0126327599864453,436.7107561000157,None,437.51819200010505,None,438.5143565000035,None,442.5155808000127,None,442.5155808000127,None,f,442.5155808000127,None,443.73263360001147,None,1.1855300000170246,,,,,,,VP2,2022_Mar_07_1302,rdk-discrimination,2021.2.3,59.998980037511906,
right,right,,,,,0,42,42,16,0.012634660117328167,1.0126346601173282,445.22796420007944,None,445.3310579000972,None,446.3312812000513,None,450.83337160001975,None,450.83337160001975,None,j,450.83337160001975,None,451.8654346000403,None,1.0085800999077037,,,,,,,VP2,2022_Mar_07_1302,rdk-discrimination,2021.2.3,59.998980037511906,
none,left,,,,,0,43,43,53,0.012616359977982938,1.012616359977983,453.36213910009246,None,454.1643985999981,None,455.16454600007273,None,459.1655178000219,None,459.1655178000219,None,f,459.1655178000219,None,460.2989899000386,None,1.1054743999848142,,,,,,,VP2,2022_Mar_07_1302,rdk-discrimination,2021.2.3,59.998980037511906,
none,left,,,,,0,44,44,51,0.01268565992359072,1.0126856599235907,461.7954585000407,None,462.14783950010315,None,463.1473038000986,None,467.149210600066,None,467.149210600066,None,f,467.149210600066,None,468.4476677000057,None,1.2737475000321865,,,,,,,VP2,2022_Mar_07_1302,rdk-discrimination,2021.2.3,59.998980037511906,
none,right,,,,,0,45,45,62,0.012768459971994162,1.0127684599719942,469.92788460000884,None,470.28085199999623,None,471.28072830010206,None,474.6818701000884,None,474.6818701000884,None,f,474.6818701000884,None,476.04246850009076,None,1.3306732999626547,,,,,,,VP2,2022_Mar_07_1302,rdk-discrimination,2021.2.3,59.998980037511906,
none,right,,,,,0,46,46,71,0.012708459980785847,1.0127084599807858,477.5264356000116,None,477.88094800000545,None,478.88074900000356,None,482.88332470005844,None,482.88332470005844,None,j,482.88332470005844,None,483.8639909999911,None,0.9436473000096157,,,,,,,VP2,2022_Mar_07_1302,rdk-discrimination,2021.2.3,59.998980037511906,
right,left,,,,,0,47,47,36,0.012723859865218401,1.0127238598652184,485.34521300008055,None,486.54738380003255,None,487.54745390010066,None,491.5485350000672,None,491.5485350000672,None,j,491.5485350000672,None,492.7101352000609,None,1.1287955000298098,,,,,,,VP2,2022_Mar_07_1302,rdk-discrimination,2021.2.3,59.998980037511906,
right,right,,,,,0,48,48,18,0.012414759956300259,1.0124147599563003,494.1946368000936,None,495.39893290004693,None,496.3973390000174,None,501.3986659999937,None,501.3986659999937,None,j,501.3986659999937,None,502.34597830008715,None,0.9159610000206158,,,,,,,VP2,2022_Mar_07_1302,rdk-discrimination,2021.2.3,59.998980037511906,
left,left,,,,,0,49,49,0,0.012649659882299602,1.0126496598822996,503.82620850007515,None,504.6309380000457,None,505.6304710000986,None,510.13282200007234,None,510.13282200007234,None,j,510.13282200007234,None,511.39453710010275,None,1.2244290000526235,,,,,,,VP2,2022_Mar_07_1302,rdk-discrimination,2021.2.3,59.998980037511906,
none,right,,,,,0,50,50,68,0.01226045994553715,1.0122604599455371,512.8785460999934,None,514.0808973000385,None,515.0804131000768,None,520.0815497000003,None,520.0815497000003,None,j,520.0815497000003,None,521.1450020000339,None,1.0189889000030234,,,,,,,VP2,2022_Mar_07_1302,rdk-discrimination,2021.2.3,59.998980037511906,
right,right,,,,,0,51,51,21,0.01237616001162678,1.0123761600116268,522.6261798000196,None,523.4331648000516,None,524.4304318000795,None,528.9322272000136,None,528.9322272000136,None,f,528.9322272000136,None,529.974067900097,None,1.0078292000107467,,,,,,,VP2,2022_Mar_07_1302,rdk-discrimination,2021.2.3,59.998980037511906,
right,right,,,,,0,52,52,17,0.012828259961679578,1.0128282599616796,531.4637823000085,None,532.66365890007,None,533.664090000093,None,537.6661978000775,None,537.6661978000775,None,j,537.6661978000775,None,538.8949570000404,None,1.199939199956134,,,,,,,VP2,2022_Mar_07_1302,rdk-discrimination,2021.2.3,59.998980037511906,
none,right,,,,,0,53,53,64,0.012892759987153113,1.0128927599871531,540.3754893000005,None,541.5810937000206,None,542.5803787000477,None,547.0813467000844,None,547.0813467000844,None,f,547.0813467000844,None,548.3568997000111,None,1.2359623999800533,,,,,,,VP2,2022_Mar_07_1302,rdk-discrimination,2021.2.3,59.998980037511906,
none,left,,,,,0,54,54,54,0.01207515993155539,1.0120751599315554,549.8460709000938,None,549.9467000000877,None,550.9467772000935,None,555.4478437000653,None,555.4478437000653,None,f,555.4478437000653,None,556.3758547001053,None,0.8943362000863999,,,,,,,VP2,2022_Mar_07_1302,rdk-discrimination,2021.2.3,59.998980037511906,
none,right,,,,,0,55,55,78,0.012695860117673874,1.0126958601176739,557.8590196000878,None,557.9635255000321,None,558.9634559000842,None,563.4651685000863,None,563.4651685000863,None,j,563.4651685000863,None,564.6663299000356,None,1.178645099978894,,,,,,,VP2,2022_Mar_07_1302,rdk-discrimination,2021.2.3,59.998980037511906,
none,left,,,,,0,56,56,45,0.012601659982465208,1.0126016599824652,566.1589441000251,None,566.2633612999925,None,567.2632509000832,None,571.2643441000255,None,571.2643441000255,None,f,571.2643441000255,None,572.3812996000051,None,1.0952799998922274,,,,,,,VP2,2022_Mar_07_1302,rdk-discrimination,2021.2.3,59.998980037511906,
none,left,,,,,0,57,57,48,0.01249015994835645,1.0124901599483564,573.8761882000836,None,574.6800180000719,None,575.6802840000018,None,580.1822267000098,None,580.1822267000098,None,f,580.1822267000098,None,581.5467291000532,None,1.3417974999174476,,,,,,,VP2,2022_Mar_07_1302,rdk-discrimination,2021.2.3,59.998980037511906,
left,right,,,,,0,58,58,34,0.012840959941968322,1.0128409599419683,583.0276045000646,None,583.3805151000852,None,584.3800528000575,None,589.3817028000485,None,589.3817028000485,None,j,589.3817028000485,None,590.4498436000431,None,1.0493722000392154,,,,,,,VP2,2022_Mar_07_1302,rdk-discrimination,2021.2.3,59.998980037511906,
none,left,,,,,0,59,59,42,0.012726259999908507,1.0127262599999085,591.94195950008,None,592.0464948000154,None,593.0465172000695,None,596.448051400017,None,596.448051400017,None,f,596.448051400017,None,597.4964329000795,None,1.0238730000564829,,,,,,,VP2,2022_Mar_07_1302,rdk-discrimination,2021.2.3,59.998980037511906,
right,right,,,,,0,60,60,30,0.012775260023772717,1.0127752600237727,598.977393600042,None,599.3296867000172,None,600.3297666000435,None,603.730734800105,None,603.730734800105,None,f,603.730734800105,None,605.0749968000455,None,1.3027962999185547,,,,,,,VP2,2022_Mar_07_1302,rdk-discrimination,2021.2.3,59.998980037511906,
none,left,,,,,0,61,61,47,0.012483160011470318,1.0124831600114703,606.5585656000767,None,606.9142453999957,None,607.9129651000258,None,611.3149454999948,None,611.3149454999948,None,j,611.3149454999948,None,612.3313457000768,None,0.992730199941434,,,,,,,VP2,2022_Mar_07_1302,rdk-discrimination,2021.2.3,59.998980037511906,
right,right,,,,,0,62,62,31,0.012839460046961904,1.012839460046962,613.8278323000995,None,613.9295928000938,None,614.929654500098,None,619.9310163999908,None,619.9310163999908,None,j,619.9310163999908,None,620.828425200074,None,0.8546653999947011,,,,,,,VP2,2022_Mar_07_1302,rdk-discrimination,2021.2.3,59.998980037511906,
none,right,,,,,0,63,63,75,0.01241595996543765,1.0124159599654377,622.3090215000557,None,622.6650837000925,None,623.6628948000725,None,628.6639272000175,None,628.6639272000175,None,f,628.6639272000175,None,629.7066166000441,None,1.0037077000597492,,,,,,,VP2,2022_Mar_07_1302,rdk-discrimination,2021.2.3,59.998980037511906,
none,right,,,,,0,64,64,76,0.012854460044763982,1.012854460044764,631.1920997000998,None,632.3967665000819,None,633.3963827000698,None,638.3980407000054,None,638.3980407000054,None,j,638.3980407000054,None,639.1429124000715,None,0.7084546000696719,,,,,,,VP2,2022_Mar_07_1302,rdk-discrimination,2021.2.3,59.998980037511906,
right,right,,,,,0,65,65,28,0.012577160028740764,1.0125771600287408,640.6242813999997,None,641.4317290000618,None,642.4295146000804,None,647.4310010001063,None,647.4310010001063,None,f,647.4310010001063,None,648.629566400079,None,1.163174799992703,,,,,,,VP2,2022_Mar_07_1302,rdk-discrimination,2021.2.3,59.998980037511906,
none,right,,,,,0,66,66,61,0.012664459878578782,1.0126644598785788,650.1090615000576,None,650.9125956000062,None,651.9127140000928,None,656.9142880000873,None,656.9142880000873,None,j,656.9142880000873,None,657.6794588000048,None,0.7333027999848127,,,,,,,VP2,2022_Mar_07_1302,rdk-discrimination,2021.2.3,59.998980037511906,
none,left,,,,,0,67,67,58,0.012484160019084811,1.0124841600190848,659.1607767000096,None,659.5129242000403,None,660.5126857000869,None,663.9167713000206,None,663.9167713000206,None,j,663.9167713000206,None,664.8765034000389,None,0.929562900098972,,,,,,,VP2,2022_Mar_07_1302,rdk-discrimination,2021.2.3,59.998980037511906,
none,left,,,,,0,68,68,41,0.012768560089170933,1.012768560089171,666.35764260008,None,667.5626627000747,None,668.562960100011,None,673.065259700059,None,673.065259700059,None,f,673.065259700059,None,674.193173800013,None,1.090927300043404,,,,,,,VP2,2022_Mar_07_1302,rdk-discrimination,2021.2.3,59.998980037511906,
left,left,,,,,0,69,69,3,0.012455359916202724,1.0124553599162027,675.6767907000612,None,676.8819551999914,None,677.8791884999955,None,682.3806085000979,None,682.3806085000979,None,f,682.3806085000979,None,683.3625279000262,None,0.9583151999395341,,,,,,,VP2,2022_Mar_07_1302,rdk-discrimination,2021.2.3,59.998980037511906,
right,left,,,,,0,70,70,38,0.012887559947557747,1.0128875599475577,684.8420193000929,None,684.9459403000074,None,685.9456741000758,None,689.3480853000656,None,689.3480853000656,None,j,689.3480853000656,None,690.4920671000145,None,1.1160569000057876,,,,,,,VP2,2022_Mar_07_1302,rdk-discrimination,2021.2.3,59.998980037511906,
none,left,,,,,0,71,71,59,0.012825259938836098,1.012825259938836,691.9746496001026,None,692.7789908000268,None,693.7791045000777,None,698.7804969000863,None,698.7804969000863,None,j,698.7804969000863,None,699.7139783001039,None,0.912720000022091,,,,,,,VP2,2022_Mar_07_1302,rdk-discrimination,2021.2.3,59.998980037511906,
none,right,,,,,0,72,72,72,0.01268565992359072,1.0126856599235907,701.2082097000675,None,701.5622175000608,None,702.5623264000751,None,706.5641571000451,None,706.5641571000451,None,j,706.5641571000451,None,707.9247732000658,None,1.3268685000948608,,,,,,,VP2,2022_Mar_07_1302,rdk-discrimination,2021.2.3,59.998980037511906,
left,left,,,,,0,73,73,4,0.012812659959308803,1.0128126599593088,709.4085027000401,None,709.7627901000669,None,710.7622679000488,None,714.7646762999939,None,714.7646762999939,None,j,714.7646762999939,None,715.7744784000097,None,0.9806196000427008,,,,,,,VP2,2022_Mar_07_1302,rdk-discrimination,2021.2.3,59.998980037511906,
left,left,,,,,0,74,74,2,0.01274345989804715,1.0127434598980471,717.2581540000392,None,717.3654187000357,None,718.3620702000335,None,722.3638233999955,None,722.3638233999955,None,f,722.3638233999955,None,723.5568130000029,None,1.1645009000785649,,,,,,,VP2,2022_Mar_07_1302,rdk-discrimination,2021.2.3,59.998980037511906,
left,right,,,,,0,75,75,32,0.012620059889741242,1.0126200598897412,725.043204100104,None,726.247940500034,None,727.2457410000497,None,732.2476549000712,None,732.2476549000712,None,j,732.2476549000712,None,733.2301037000725,None,0.9566855999873951,,,,,,,VP2,2022_Mar_07_1302,rdk-discrimination,2021.2.3,59.998980037511906,
left,left,,,,,0,76,76,1,0.012874759966507554,1.0128747599665076,734.7249792000512,None,735.9287047000835,None,736.9290019000182,None,740.9298362000845,None,740.9298362000845,None,f,740.9298362000845,None,741.8809556000633,None,0.928494599997066,,,,,,,VP2,2022_Mar_07_1302,rdk-discrimination,2021.2.3,59.998980037511906,
left,left,,,,,0,77,77,15,0.012204759987071157,1.0122047599870712,743.3769793000538,None,743.728476600023,None,744.7286957000615,None,749.2296023000963,None,749.2296023000963,None,j,749.2296023000963,None,750.2450779000064,None,0.9902327000163496,,,,,,,VP2,2022_Mar_07_1302,rdk-discrimination,2021.2.3,59.998980037511906,
right,right,,,,,0,78,78,24,0.012884560041129589,1.0128845600411296,751.7261023001047,None,752.9310254000593,None,753.9286419000709,None,758.4298380000982,None,758.4298380000982,None,j,758.4298380000982,None,759.7741998001002,None,1.3138835000572726,,,,,,,VP2,2022_Mar_07_1302,rdk-discrimination,2021.2.3,59.998980037511906,
right,right,,,,,0,79,79,25,0.012809560052119195,1.0128095600521192,761.2583783000009,None,761.6126379000489,None,762.61194480001,None,767.6133918000851,None,767.6133918000851,None,j,767.6133918000851,None,768.6618451999966,None,1.0263662999495864,,,,,,,VP2,2022_Mar_07_1302,rdk-discrimination,2021.2.3,59.998980037511906,
none,left,,,,,1,0,80,52,0.012596059939824045,1.012596059939824,770.1405795000028,None,770.4951037000865,None,771.495161900064,None,776.4964158000657,None,776.4964158000657,None,f,776.4964158000657,None,777.4981311000884,None,0.9813476999988779,,,,,,,VP2,2022_Mar_07_1302,rdk-discrimination,2021.2.3,59.998980037511906,
none,left,,,,,1,1,81,59,0.012619759887456894,1.012619759887457,778.9911315999925,None,780.1950112000341,None,781.1952767000766,None,784.5962711001048,None,784.5962711001048,None,f,784.5962711001048,None,785.547192200087,None,0.9294182000448927,,,,,,,VP2,2022_Mar_07_1302,rdk-discrimination,2021.2.3,59.998980037511906,
left,right,,,,,1,2,82,32,0.012906160089187324,1.0129061600891873,787.0427086000564,None,787.8449183000484,None,788.8449518000707,None,792.2476573000895,None,792.2476573000895,None,j,792.2476573000895,None,793.1983997999923,None,0.9182092000264674,,,,,,,VP2,2022_Mar_07_1302,rdk-discrimination,2021.2.3,59.998980037511906,
none,right,,,,,1,3,83,77,0.012727459892630577,1.0127274598926306,794.6900448000524,None,795.8948567000916,None,796.8949628000846,None,801.3972032000311,None,801.3972032000311,None,f,801.3972032000311,None,802.5926908000838,None,1.16673830000218,,,,,,,VP2,2022_Mar_07_1302,rdk-discrimination,2021.2.3,59.998980037511906,
right,left,,,,,1,4,84,37,0.012651759898290038,1.01265175989829,804.0761040000943,None,804.8780916000251,None,805.8780451000202,None,809.8791945000412,None,809.8791945000412,None,j,809.8791945000412,None,810.9292629000265,None,1.027419500052929,,,,,,,VP2,2022_Mar_07_1302,rdk-discrimination,2021.2.3,59.998980037511906,
left,left,,,,,1,5,85,2,0.012923559988848865,1.0129235599888489,812.4254426000407,None,812.5294857000699,None,813.5280662000878,None,818.030321200029,None,818.030321200029,None,f,818.030321200029,None,819.1172040000092,None,1.0466874999692664,,,,,,,VP2,2022_Mar_07_1302,rdk-discrimination,2021.2.3,59.998980037511906,
left,left,,,,,1,6,86,1,0.011449360055848956,1.011449360055849,820.6108373000752,None,820.7120383000001,None,821.7113989000209,None,826.2123430999927,None,826.2123430999927,None,f,826.2123430999927,None,827.3114028000273,None,1.0777262001065537,,,,,,,VP2,2022_Mar_07_1302,rdk-discrimination,2021.2.3,59.998980037511906,
left,left,,,,,1,7,87,5,0.012862960109487176,1.0128629601094872,828.790260400041,None,829.9950741000939,None,830.9945733000059,None,835.495513800066,None,835.495513800066,None,f,835.495513800066,None,836.8946606999962,None,1.3704767000162974,,,,,,,VP2,2022_Mar_07_1302,rdk-discrimination,2021.2.3,59.998980037511906,
none,left,,,,,1,8,88,56,0.012648360105231404,1.0126483601052314,838.3742090000305,None,839.1779950000346,None,840.1780109000392,None,845.1804345001001,None,845.1804345001001,None,f,845.1804345001001,None,846.5465784000698,None,1.3489822000265121,,,,,,,VP2,2022_Mar_07_1302,rdk-discrimination,2021.2.3,59.998980037511906,
none,right,,,,,1,9,89,63,0.012804359896108508,1.0128043598961085,848.0398162000347,None,848.8445018000202,None,849.844628800056,None,853.2464680999983,None,853.2464680999983,None,j,853.2464680999983,None,854.4626586000668,None,1.1864356000442058,,,,,,,VP2,2022_Mar_07_1302,rdk-discrimination,2021.2.3,59.998980037511906,
left,left,,,,,1,10,90,9,0.012966660084202886,1.0129666600842029,855.9577130000107,None,857.1609140000073,None,858.1610941000981,None,862.162048600032,None,862.162048600032,None,j,862.162048600032,None,863.3567349000368,None,1.1650451000314206,,,,,,,VP2,2022_Mar_07_1302,rdk-discrimination,2021.2.3,59.998980037511906,
none,left,,,,,1,11,91,51,0.01272855990100652,1.0127285599010065,864.8398565000389,None,866.044405600056,None,867.0443173000822,None,871.0467810000991,None,871.0467810000991,None,f,871.0467810000991,None,872.0726357999956,None,0.9935981000307947,,,,,,,VP2,2022_Mar_07_1302,rdk-discrimination,2021.2.3,59.998980037511906,
none,left,,,,,1,12,92,48,0.012780160061083734,1.0127801600610837,873.5561997001059,None,874.7620254000649,None,875.7611924000084,None,880.2633211000357,None,880.2633211000357,None,j,880.2633211000357,None,881.2894478000235,None,1.0001463999506086,,,,,,,VP2,2022_Mar_07_1302,rdk-discrimination,2021.2.3,59.998980037511906,
none,right,,,,,1,13,93,76,0.012634259997867048,1.012634259997867,882.7770172000164,None,883.9794347001007,None,884.9776002001017,None,889.4790425000247,None,889.4790425000247,None,f,889.4790425000247,None,890.4472829001024,None,0.9477803000481799,,,,,,,VP2,2022_Mar_07_1302,rdk-discrimination,2021.2.3,59.998980037511906,
right,right,,,,,1,14,94,26,0.012311459984630346,1.0123114599846303,891.9415531000122,None,892.2947440000717,None,893.2939387999941,None,897.7957470000256,None,897.7957470000256,None,j,897.7957470000256,None,898.6395447000396,None,0.8099777000024915,,,,,,,VP2,2022_Mar_07_1302,rdk-discrimination,2021.2.3,59.998980037511906,
none,left,,,,,1,15,95,44,0.01285465992987156,1.0128546599298716,900.1233619000996,None,900.2274151000893,None,901.2274482999928,None,905.2287699000444,None,905.2287699000444,None,f,905.2287699000444,None,906.5278673000867,None,1.276166999945417,,,,,,,VP2,2022_Mar_07_1302,rdk-discrimination,2021.2.3,59.998980037511906,
right,right,,,,,1,16,96,22,0.012728260015137494,1.0127282600151375,908.0083330000052,None,908.3608095000964,None,909.3606354000513,None,913.3623487000586,None,913.3623487000586,None,j,913.3623487000586,None,914.4605805000756,None,1.0688573000952601,,,,,,,VP2,2022_Mar_07_1302,rdk-discrimination,2021.2.3,59.998980037511906,
none,right,,,,,1,17,97,78,0.012964059947989881,1.0129640599479899,915.9395188000053,None,916.2939760000445,None,917.2939474000596,None,921.2958750000689,None,921.2958750000689,None,f,921.2958750000689,None,922.5906414000783,None,1.261061100056395,,,,,,,VP2,2022_Mar_07_1302,rdk-discrimination,2021.2.3,59.998980037511906,
right,right,,,,,1,18,98,23,0.012708460097201169,1.0127084600972012,924.0744742000243,None,924.8781545000384,None,925.8770381000359,None,930.3781798999989,None,930.3781798999989,None,f,930.3781798999989,None,931.5772148000542,None,1.177709500072524,,,,,,,VP2,2022_Mar_07_1302,rdk-discrimination,2021.2.3,59.998980037511906,
none,right,,,,,1,19,99,62,0.012897060019895434,1.0128970600198954,933.0558862000471,None,933.4105423000874,None,934.4106435000431,None,938.4119851000141,None,938.4119851000141,None,j,938.4119851000141,None,939.5391855000053,None,1.1011005999753252,,,,,,,VP2,2022_Mar_07_1302,rdk-discrimination,2021.2.3,59.998980037511906,
none,right,,,,,1,20,100,60,0.012959360028617084,1.012959360028617,941.0250519000692,None,942.2270771000767,None,943.2271575999912,None,948.229310600087,None,948.229310600087,None,j,948.229310600087,None,949.4630140000954,None,1.2128423999529332,,,,,,,VP2,2022_Mar_07_1302,rdk-discrimination,2021.2.3,59.998980037511906,
left,left,,,,,1,21,101,11,0.012703959946520627,1.0127039599465206,950.9560313000111,None,951.3101856000721,None,952.3101484000217,None,956.8134825000307,None,956.8134825000307,None,f,956.8134825000307,None,958.1451075000223,None,1.3095678000245243,,,,,,,VP2,2022_Mar_07_1302,rdk-discrimination,2021.2.3,59.998980037511906,
none,right,,,,,1,22,102,75,0.012603459879755974,1.012603459879756,959.6412668999983,None,959.7437847000547,None,960.7434535000939,None,964.1459764000028,None,964.1459764000028,None,j,964.1459764000028,None,965.4646803000942,None,1.2963033999549225,,,,,,,VP2,2022_Mar_07_1302,rdk-discrimination,2021.2.3,59.998980037511906,
left,right,,,,,1,23,103,35,0.012887459946796298,1.0128874599467963,966.9561781000812,None,967.7606201000744,None,968.7602227000752,None,973.2612324000802,None,973.2612324000802,None,j,973.2612324000802,None,974.3442087000003,None,1.0598394999979064,,,,,,,VP2,2022_Mar_07_1302,rdk-discrimination,2021.2.3,59.998980037511906,
right,right,,,,,1,24,104,25,0.012966659851372242,1.0129666598513722,975.8247853000648,None,977.0266422000714,None,978.0267338000704,None,982.5278769000433,None,982.5278769000433,None,j,982.5278769000433,None,983.3106677000178,None,0.7536068999907002,,,,,,,VP2,2022_Mar_07_1302,rdk-discrimination,2021.2.3,59.998980037511906,
left,right,,,,,1,25,105,34,0.012949259951710701,1.0129492599517107,984.7923926000949,None,985.9952898999909,None,986.9935488000046,None,991.9948517000303,None,991.9948517000303,None,f,991.9948517000303,None,993.1752500000875,None,1.1437109999824315,,,,,,,VP2,2022_Mar_07_1302,rdk-discrimination,2021.2.3,59.998980037511906,
none,right,,,,,1,26,106,73,0.01267535996157676,1.0126753599615768,994.6599634001032,None,995.4609215999953,None,996.4598309000721,None,1001.4608628000133,None,1001.4608628000133,None,f,1001.4608628000133,None,1002.793582900078,None,1.314995800028555,,,,,,,VP2,2022_Mar_07_1302,rdk-discrimination,2021.2.3,59.998980037511906,
right,right,,,,,1,27,107,27,0.012456859927624464,1.0124568599276245,1004.2760941000888,None,1004.6266480000922,None,1005.6263943000231,None,1009.0282440000447,None,1009.0282440000447,None,None,1009.0282440000447,None,1010.531541400007,None,,,,,,,,VP2,2022_Mar_07_1302,rdk-discrimination,2021.2.3,59.998980037511906,
left,left,,,,,1,28,108,0,0.014618760091252625,1.0146187600912526,1012.0205636000028,None,1012.3768730000593,None,1013.3765081000747,None,1017.3777150000678,None,1017.3777150000678,None,f,1017.3777150000678,None,1018.303136200062,None,0.8862245000200346,,,,,,,VP2,2022_Mar_07_1302,rdk-discrimination,2021.2.3,59.998980037511906,
none,right,,,,,1,29,109,71,0.012837259913794696,1.0128372599137947,1019.7907485000324,None,1019.8931487000082,None,1020.8931820000289,None,1025.8948965000454,None,1025.8948965000454,None,f,1025.8948965000454,None,1026.9734467000235,None,1.0459147000219673,,,,,,,VP2,2022_Mar_07_1302,rdk-discrimination,2021.2.3,59.998980037511906,
right,right,,,,,1,30,110,18,0.012750559952110052,1.01275055995211,1028.4549291000003,None,1028.8098680000985,None,1029.8099149001064,None,1033.2109179000836,None,1033.2109179000836,None,j,1033.2109179000836,None,1034.1724967000773,None,0.9263739000307396,,,,,,,VP2,2022_Mar_07_1302,rdk-discrimination,2021.2.3,59.998980037511906,
none,left,,,,,1,31,111,55,0.012886659940704703,1.0128866599407047,1035.6572638000362,None,1036.459654300008,None,1037.4596531999996,None,1040.8621909000212,None,1040.8621909000212,None,f,1040.8621909000212,None,1041.7130139000947,None,0.8322228000033647,,,,,,,VP2,2022_Mar_07_1302,rdk-discrimination,2021.2.3,59.998980037511906,
left,left,,,,,1,32,112,7,0.01244746008887887,1.0124474600888789,1043.2058276000898,None,1044.4094688000623,None,1045.4096093000844,None,1050.4112331999931,None,1050.4112331999931,None,f,1050.4112331999931,None,1051.3257562000072,None,0.8932118000229821,,,,,,,VP2,2022_Mar_07_1302,rdk-discrimination,2021.2.3,59.998980037511906,
none,left,,,,,1,33,113,47,0.012619260116480291,1.0126192601164803,1052.8057601000182,None,1053.6102488000179,None,1054.6094304000726,None,1059.1104898001067,None,1059.1104898001067,None,f,1059.1104898001067,None,1060.1443291000323,None,1.0173389998963103,,,,,,,VP2,2022_Mar_07_1302,rdk-discrimination,2021.2.3,59.998980037511906,
none,right,,,,,1,34,114,69,0.01270505995489657,1.0127050599548966,1061.6392520000227,None,1062.4428532000165,None,1063.4427644000389,None,1066.8447205000557,None,1066.8447205000557,None,j,1066.8447205000557,None,1068.044946600101,None,1.1791002999525517,,,,,,,VP2,2022_Mar_07_1302,rdk-discrimination,2021.2.3,59.998980037511906,
right,right,,,,,1,35,115,29,0.01253176003228873,1.0125317600322887,1069.5383861000882,None,1069.6425446000649,None,1070.64274270006,None,1074.6437663000543,None,1074.6437663000543,None,j,1074.6437663000543,None,1075.578720199992,None,0.9135582998860627,,,,,,,VP2,2022_Mar_07_1302,rdk-discrimination,2021.2.3,59.998980037511906,
none,right,,,,,1,36,116,67,0.012731460039503872,1.0127314600395039,1077.0714941000333,None,1078.276232500095,None,1079.2759460000088,None,1082.6779139999999,None,1082.6779139999999,None,j,1082.6779139999999,None,1083.6451877000509,None,0.9457466000458226,,,,,,,VP2,2022_Mar_07_1302,rdk-discrimination,2021.2.3,59.998980037511906,
none,left,,,,,1,37,117,43,0.012808259925805032,1.012808259925805,1085.138777300017,None,1085.2426018000115,None,1086.242607400054,None,1089.6435193000361,None,1089.6435193000361,None,f,1089.6435193000361,None,1090.7092783000553,None,1.0430532000027597,,,,,,,VP2,2022_Mar_07_1302,rdk-discrimination,2021.2.3,59.998980037511906,
right,right,,,,,1,38,118,28,0.012697060010395944,1.012697060010396,1092.1901663000463,None,1092.2924823000794,None,1093.2925023999996,None,1096.69385660009,None,1096.69385660009,None,f,1096.69385660009,None,1097.87179070001,None,1.1448927000164986,,,,,,,VP2,2022_Mar_07_1302,rdk-discrimination,2021.2.3,59.998980037511906,
none,right,,,,,1,39,119,72,0.012700960040092468,1.0127009600400925,1099.3550781999948,None,1099.7092335000634,None,1100.708972100052,None,1105.7101589000085,None,1105.7101589000085,None,j,1105.7101589000085,None,1106.8691823000554,None,1.1189962000353262,,,,,,,VP2,2022_Mar_07_1302,rdk-discrimination,2021.2.3,59.998980037511906,
right,right,,,,,1,40,120,19,0.012647359981201589,1.0126473599812016,1108.3565336000174,None,1109.561538000009,None,1110.5589315000689,None,1115.0608229000354,None,1115.0608229000354,None,j,1115.0608229000354,None,1115.7924026000546,None,0.7099997999612242,,,,,,,VP2,2022_Mar_07_1302,rdk-discrimination,2021.2.3,59.998980037511906,
none,left,,,,,1,41,121,54,0.012644559959881008,1.012644559959881,1117.2726801000535,None,1117.3762680999935,None,1118.3757393000415,None,1121.7782968000975,None,1121.7782968000975,None,f,1121.7782968000975,None,1122.677934700041,None,0.8781554999295622,,,,,,,VP2,2022_Mar_07_1302,rdk-discrimination,2021.2.3,59.998980037511906,
left,left,,,,,1,42,122,10,0.012482360005378723,1.0124823600053787,1124.1744791000383,None,1124.2766530000372,None,1125.2756780000636,None,1128.6790527000558,None,1128.6790527000558,None,f,1128.6790527000558,None,1129.5106251999969,None,0.8119433999527246,,,,,,,VP2,2022_Mar_07_1302,rdk-discrimination,2021.2.3,59.998980037511906,
left,left,,,,,1,43,123,3,0.012600659974850714,1.0126006599748507,1131.0042458000826,None,1131.808674900094,None,1132.8087243000045,None,1136.8098732000217,None,1136.8098732000217,None,f,1136.8098732000217,None,1137.6618040000321,None,0.8283114000223577,,,,,,,VP2,2022_Mar_07_1302,rdk-discrimination,2021.2.3,59.998980037511906,
right,right,,,,,1,44,124,16,0.012792960042133927,1.012792960042134,1139.1541464000475,None,1140.3587747000856,None,1141.3588452000404,None,1146.3605595000554,None,1146.3605595000554,None,f,1146.3605595000554,None,1147.5545328001026,None,1.160477300058119,,,,,,,VP2,2022_Mar_07_1302,rdk-discrimination,2021.2.3,59.998980037511906,
none,left,,,,,1,45,125,41,0.012872860068455338,1.0128728600684553,1149.0387418000028,None,1150.2427580000367,None,1151.2422481999965,None,1154.6434934000717,None,1154.6434934000717,None,f,1154.6434934000717,None,1155.4897204000736,None,0.8180900999577716,,,,,,,VP2,2022_Mar_07_1302,rdk-discrimination,2021.2.3,59.998980037511906,
left,left,,,,,1,46,126,13,0.012682660017162561,1.0126826600171626,1156.9708869000897,None,1157.32520140009,None,1158.3251915000146,None,1163.326311700046,None,1163.326311700046,None,f,1163.326311700046,None,1164.1264691000106,None,0.7826518999645486,,,,,,,VP2,2022_Mar_07_1302,rdk-discrimination,2021.2.3,59.998980037511906,
none,left,,,,,1,47,127,42,0.012740959879010916,1.012740959879011,1165.6206937000388,None,1166.4253900001058,None,1167.4255902000004,None,1171.9273029000033,None,1171.9273029000033,None,f,1171.9273029000033,None,1172.9278317000717,None,0.9818458999507129,,,,,,,VP2,2022_Mar_07_1302,rdk-discrimination,2021.2.3,59.998980037511906,
right,left,,,,,1,48,128,39,0.012266759993508458,1.0122667599935085,1174.4228054000996,None,1175.6251051001018,None,1176.6254568001023,None,1180.626336800051,None,1180.626336800051,None,f,1180.626336800051,None,1181.660744199995,None,1.0157129999715835,,,,,,,VP2,2022_Mar_07_1302,rdk-discrimination,2021.2.3,59.998980037511906,
none,right,,,,,1,49,129,74,0.012724059983156621,1.0127240599831566,1183.1543976000976,None,1183.2587678000564,None,1184.2584137000376,None,1189.2594721000642,None,1189.2594721000642,None,j,1189.2594721000642,None,1190.2772670000559,None,0.9949939999496564,,,,,,,VP2,2022_Mar_07_1302,rdk-discrimination,2021.2.3,59.998980037511906,
none,right,,,,,1,50,130,68,0.012950059957802296,1.0129500599578023,1191.7704652000684,None,1191.8751016000751,None,1192.8752009000164,None,1196.2768316000002,None,1196.2768316000002,None,j,1196.2768316000002,None,1197.3274091000203,None,1.0347373000113294,,,,,,,VP2,2022_Mar_07_1302,rdk-discrimination,2021.2.3,59.998980037511906,
left,left,,,,,1,51,131,15,0.012739859870634973,1.012739859870635,1198.8204819000093,None,1198.9248735000147,None,1199.9248806000687,None,1203.326877100044,None,1203.326877100044,None,f,1203.326877100044,None,1204.2108001000015,None,0.8625502000795677,,,,,,,VP2,2022_Mar_07_1302,rdk-discrimination,2021.2.3,59.998980037511906,
left,left,,,,,1,52,132,12,0.012704059947282076,1.012704059947282,1205.7056747000897,None,1206.0581453000195,None,1207.058193600038,None,1211.5600142000476,None,1211.5600142000476,None,f,1211.5600142000476,None,1212.6949090000708,None,1.1165929000126198,,,,,,,VP2,2022_Mar_07_1302,rdk-discrimination,2021.2.3,59.998980037511906,
none,right,,,,,1,53,133,70,0.012764760060235858,1.0127647600602359,1214.1893651999999,None,1214.9914570000255,None,1215.9915269000921,None,1220.992736699991,None,1220.992736699991,None,j,1220.992736699991,None,1222.1108302000212,None,1.0965244000544772,,,,,,,VP2,2022_Mar_07_1302,rdk-discrimination,2021.2.3,59.998980037511906,
right,right,,,,,1,54,134,31,0.012887659948319197,1.0128876599483192,1223.6060935000423,None,1223.9582664000336,None,1224.957984100096,None,1229.959086399991,None,1229.959086399991,None,j,1229.959086399991,None,1230.859271800029,None,0.8814312000758946,,,,,,,VP2,2022_Mar_07_1302,rdk-discrimination,2021.2.3,59.998980037511906,
none,left,,,,,1,55,135,53,0.012695159879513085,1.012695159879513,1232.355092800106,None,1232.457927600015,None,1233.4578603000846,None,1237.459584300057,None,1237.459584300057,None,f,1237.459584300057,None,1238.592973700026,None,1.1024763999739662,,,,,,,VP2,2022_Mar_07_1302,rdk-discrimination,2021.2.3,59.998980037511906,
right,right,,,,,1,56,136,30,0.012731460039503872,1.0127314600395039,1240.0894383999985,None,1241.291168200085,None,1242.2913249999983,None,1246.792314600083,None,1246.792314600083,None,f,1246.792314600083,None,1247.8194912000326,None,0.9979325999738649,,,,,,,VP2,2022_Mar_07_1302,rdk-discrimination,2021.2.3,59.998980037511906,
none,left,,,,,1,57,137,45,0.01268586004152894,1.012685860041529,1249.3055865000933,None,1249.6590041000163,None,1250.658221199992,None,1255.6595436000498,None,1255.6595436000498,None,f,1255.6595436000498,None,1256.5859712000238,None,0.8999222000129521,,,,,,,VP2,2022_Mar_07_1302,rdk-discrimination,2021.2.3,59.998980037511906,
right,right,,,,,1,58,138,24,0.012333759921602905,1.012333759921603,1258.0697898000944,None,1258.8766659999965,None,1259.8745696000988,None,1264.3770400000503,None,1264.3770400000503,None,f,1264.3770400000503,None,1265.3525445000269,None,0.9430547000374645,,,,,,,VP2,2022_Mar_07_1302,rdk-discrimination,2021.2.3,59.998980037511906,
none,left,,,,,1,59,139,57,0.01260275999084115,1.0126027599908412,1266.8389684000285,None,1268.041616100003,None,1269.0411365000764,None,1273.0420868000947,None,1273.0420868000947,None,f,1273.0420868000947,None,1274.0902723000618,None,1.0134858000092208,,,,,,,VP2,2022_Mar_07_1302,rdk-discrimination,2021.2.3,59.998980037511906,
left,left,,,,,1,60,140,6,0.012446459964849055,1.012446459964849,1275.5705783000449,None,1275.9245127000613,None,1276.9243774000788,None,1281.9265750000486,None,1281.9265750000486,None,f,1281.9265750000486,None,1282.725695900037,None,0.7771568999160081,,,,,,,VP2,2022_Mar_07_1302,rdk-discrimination,2021.2.3,59.998980037511906,
right,right,,,,,1,61,141,17,0.012689160066656768,1.0126891600666568,1284.2192280000309,None,1285.0242070000386,None,1286.0242954000132,None,1290.5258076000027,None,1290.5258076000027,None,j,1290.5258076000027,None,1291.6945663000224,None,1.1509258000878617,,,,,,,VP2,2022_Mar_07_1302,rdk-discrimination,2021.2.3,59.998980037511906,
none,left,,,,,1,62,142,49,0.012677659979090095,1.01267765997909,1293.18703130004,None,1294.3907058000332,None,1295.3909035000252,None,1299.3927547000349,None,1299.3927547000349,None,f,1299.3927547000349,None,1300.1411824000534,None,0.718548999982886,,,,,,,VP2,2022_Mar_07_1302,rdk-discrimination,2021.2.3,59.998980037511906,
none,right,,,,,1,63,143,79,0.012429559952579439,1.0124295599525794,1301.619856000063,None,1302.4242779000197,None,1303.4241663001012,None,1306.8258514000336,None,1306.8258514000336,None,j,1306.8258514000336,None,1307.7284371000715,None,0.8788243000162765,,,,,,,VP2,2022_Mar_07_1302,rdk-discrimination,2021.2.3,59.998980037511906,
none,right,,,,,1,64,144,64,0.012520460062660277,1.0125204600626603,1309.2199548000935,None,1310.424135700101,None,1311.4241864000214,None,1315.425500000012,None,1315.425500000012,None,f,1315.425500000012,None,1316.268683900009,None,0.8015828999923542,,,,,,,VP2,2022_Mar_07_1302,rdk-discrimination,2021.2.3,59.998980037511906,
left,left,,,,,1,65,145,14,0.012661059969104826,1.0126610599691048,1317.7531226000283,None,1318.1106367000611,None,1319.107243000064,None,1323.6089646000182,None,1323.6089646000182,None,f,1323.6089646000182,None,1324.4369707000442,None,0.8000151000451297,,,,,,,VP2,2022_Mar_07_1302,rdk-discrimination,2021.2.3,59.998980037511906,
none,left,,,,,1,66,146,46,0.012765160063281655,1.0127651600632817,1325.9189871000126,None,1327.1240063000005,None,1328.124164100038,None,1332.625485900091,None,1332.625485900091,None,j,1332.625485900091,None,1333.7891916000517,None,1.128664099960588,,,,,,,VP2,2022_Mar_07_1302,rdk-discrimination,2021.2.3,59.998980037511906,
right,right,,,,,1,67,147,21,0.012608059914782643,1.0126080599147826,1335.269282000023,None,1335.3764383000089,None,1336.3737007000018,None,1339.7764321001014,None,1339.7764321001014,None,j,1339.7764321001014,None,1340.7887719999999,None,0.9760773000307381,,,,,,,VP2,2022_Mar_07_1302,rdk-discrimination,2021.2.3,59.998980037511906,
right,left,,,,,1,68,148,36,0.012778160045854747,1.0127781600458547,1342.2714971000096,None,1343.4756103000836,None,1344.474034700077,None,1347.876172700082,None,1347.876172700082,None,f,1347.876172700082,None,1348.7106363000348,None,0.8096464000409469,,,,,,,VP2,2022_Mar_07_1302,rdk-discrimination,2021.2.3,59.998980037511906,
none,right,,,,,1,69,149,61,0.012058760039508343,1.0120587600395083,1350.2037203999935,None,1350.3069993000245,None,1351.3069683000213,None,1355.3084508000175,None,1355.3084508000175,None,f,1355.3084508000175,None,1356.1360091000097,None,0.7887442000210285,,,,,,,VP2,2022_Mar_07_1302,rdk-discrimination,2021.2.3,59.998980037511906,
left,left,,,,,1,70,150,4,0.012533959932625294,1.0125339599326253,1357.6189775000094,None,1357.9736404001014,None,1358.973740400048,None,1363.9752593000885,None,1363.9752593000885,None,f,1363.9752593000885,None,1364.80672220001,None,0.7931982999434695,,,,,,,VP2,2022_Mar_07_1302,rdk-discrimination,2021.2.3,59.998980037511906,
right,left,,,,,1,71,151,38,0.01270066003780812,1.0127006600378081,1366.2863365000812,None,1367.0901469000382,None,1368.0902085000416,None,1372.0914265000029,None,1372.0914265000029,None,j,1372.0914265000029,None,1373.3358718000818,None,1.2118442000355572,,,,,,,VP2,2022_Mar_07_1302,rdk-discrimination,2021.2.3,59.998980037511906,
none,left,,,,,1,72,152,58,0.012659459956921637,1.0126594599569216,1374.8213576000417,None,1375.173792900052,None,1376.1733812000602,None,1380.1757293000119,None,1380.1757293000119,None,f,1380.1757293000119,None,1381.171342800022,None,0.9587712999200448,,,,,,,VP2,2022_Mar_07_1302,rdk-discrimination,2021.2.3,59.998980037511906,
right,right,,,,,1,73,153,20,0.012635859893634915,1.012635859893635,1382.6522567000939,None,1383.4589130000677,None,1384.4569629000034,None,1388.9600251000375,None,1388.9600251000375,None,j,1388.9600251000375,None,1390.0102926000254,None,1.0327809000154957,,,,,,,VP2,2022_Mar_07_1302,rdk-discrimination,2021.2.3,59.998980037511906,
none,left,,,,,1,74,154,40,0.012646160088479519,1.0126461600884795,1391.507566000102,None,1391.606673500035,None,1392.6067005000077,None,1396.6083308000816,None,1396.6083308000816,None,f,1396.6083308000816,None,1397.473210700089,None,0.8346907000523061,,,,,,,VP2,2022_Mar_07_1302,rdk-discrimination,2021.2.3,59.998980037511906,
none,right,,,,,1,75,155,65,0.01282366004306823,1.0128236600430682,1398.9525001000147,None,1399.7567261999939,None,1400.7567212000722,None,1404.7599232000066,None,1404.7599232000066,None,j,1404.7599232000066,None,1405.7775051000062,None,0.9950299999909475,,,,,,,VP2,2022_Mar_07_1302,rdk-discrimination,2021.2.3,59.998980037511906,
left,right,,,,,1,76,156,33,0.012505860067903996,1.012505860067904,1407.2709813000401,None,1407.6236902000383,None,1408.6231851000339,None,1413.1248006999958,None,1413.1248006999958,None,f,1413.1248006999958,None,1414.250201500021,None,1.09357310004998,,,,,,,VP2,2022_Mar_07_1302,rdk-discrimination,2021.2.3,59.998980037511906,
left,left,,,,,1,77,157,8,0.012866159901022911,1.012866159901023,1415.7362794000655,None,1416.54264530004,None,1417.540180800017,None,1422.0486683000345,None,1422.0486683000345,None,f,1422.0486683000345,None,1422.8735184000107,None,0.7934713000431657,,,,,,,VP2,2022_Mar_07_1302,rdk-discrimination,2021.2.3,59.998980037511906,
none,left,,,,,1,78,158,50,0.012354059959761798,1.0123540599597618,1424.3525688000955,None,1424.4571005000034,None,1425.4563726000488,None,1429.9582294001011,None,1429.9582294001011,None,f,1429.9582294001011,None,1430.9234855000395,None,0.943966899998486,,,,,,,VP2,2022_Mar_07_1302,rdk-discrimination,2021.2.3,59.998980037511906,
none,right,,,,,1,79,159,66,0.012960860040038824,1.0129608600400388,1432.4028943000594,None,1433.206633200054,None,1434.2063805999933,None,1438.2081931000575,None,1438.2081931000575,None,j,1438.2081931000575,None,1439.0063875000924,None,0.7788621999789029,,,,,,,VP2,2022_Mar_07_1302,rdk-discrimination,2021.2.3,59.998980037511906,
