trial,ID,cue,direction,response,rt,choice,correct,condition
0,JH,right,right,1,0.7136440720000792,right,1,valid
1,JH,right,right,1,0.6271285100001478,right,1,valid
2,JH,none,right,0,0.6703409599999759,left,0,neutral
3,JH,none,right,1,0.5738487590001569,right,1,neutral
4,JH,left,left,1,0.8405912719999833,right,0,valid
5,JH,none,right,1,0.6678840849999688,right,1,neutral
6,JH,none,left,1,1.1236920199999076,right,0,neutral
7,JH,left,left,0,0.6402048320001086,left,1,valid
8,JH,left,right,0,1.1291791140001806,left,0,invalid
9,JH,none,right,1,1.02830285500022,right,1,neutral
10,JH,none,left,0,1.3487436020000132,left,1,neutral
11,JH,left,left,0,0.6875616349998381,left,1,valid
12,JH,left,left,0,0.7210003919999508,left,1,valid
13,JH,none,left,0,0.6548104700000295,left,1,neutral
14,JH,right,right,1,1.0176621870000415,right,1,valid
15,JH,none,right,1,1.1211003019998316,right,1,neutral
16,JH,left,left,0,1.0786990429996877,left,1,valid
17,JH,right,left,0,0.6432690420001563,left,1,invalid
18,JH,right,right,1,0.7162547789998825,right,1,valid
19,JH,left,left,0,0.5782550239996453,left,1,valid
20,JH,right,left,0,0.6798541930002102,left,1,invalid
21,JH,right,right,1,1.0605420120000415,right,1,valid
22,JH,none,left,0,0.846463119999953,left,1,neutral
23,JH,right,right,0,0.6517283389998738,left,0,valid
24,JH,none,right,1,0.9332569250000232,right,1,neutral
25,JH,right,right,1,0.7031123490000937,right,1,valid
26,JH,none,right,1,0.6624604220000947,right,1,neutral
27,JH,left,left,0,0.5986355770000955,left,1,valid
28,JH,none,left,0,0.6588991400003579,left,1,neutral
29,JH,none,left,0,0.6497466420000819,left,1,neutral
30,JH,none,left,0,0.6238631899996108,left,1,neutral
31,JH,left,right,1,0.9437082439999358,right,1,invalid
32,JH,none,left,0,0.649637502999667,left,1,neutral
33,JH,left,left,0,0.6190436700003374,left,1,valid
34,JH,none,left,1,0.7581620870000734,right,0,neutral
35,JH,none,left,1,0.8612618040001507,right,0,neutral
36,JH,none,left,0,0.9624860869998884,left,1,neutral
37,JH,none,right,1,0.9260427260001052,right,1,neutral
38,JH,right,right,1,0.658227739999802,right,1,valid
39,JH,left,left,0,0.6235924499997054,left,1,valid
40,JH,left,right,0,0.48326289699980407,left,0,invalid
41,JH,right,left,0,0.7789658430001509,left,1,invalid
42,JH,right,right,1,0.6609857839998767,right,1,valid
43,JH,none,right,1,0.8030610119999437,right,1,neutral
44,JH,none,right,0,0.968812779000018,left,0,neutral
45,JH,none,left,0,0.6501818400001866,left,1,neutral
46,JH,none,left,0,0.6246839199998249,left,1,neutral
47,JH,none,right,1,0.7928912120000859,right,1,neutral
48,JH,none,left,0,0.6193752389999645,left,1,neutral
49,JH,right,right,1,0.5427605830000175,right,1,valid
50,JH,right,right,1,0.6746626290000677,right,1,valid
51,JH,none,left,0,1.0001105010001083,left,1,neutral
52,JH,none,right,1,0.8019095610002296,right,1,neutral
53,JH,none,right,1,0.6174737190003725,right,1,neutral
54,JH,left,left,0,1.0782667359999325,left,1,valid
55,JH,left,left,0,0.6465748489999896,left,1,valid
56,JH,right,right,1,1.0327619360000426,right,1,valid
57,JH,none,right,1,0.5432526849999704,right,1,neutral
58,JH,none,left,0,0.6010283310001796,left,1,neutral
59,JH,none,right,1,0.6992552110000361,right,1,neutral
60,JH,left,right,1,0.7582696270001179,right,1,invalid
61,JH,left,left,0,0.7653933729998244,left,1,valid
62,JH,none,right,1,1.2679839779998474,right,1,neutral
63,JH,none,left,1,1.3560544120000486,right,0,neutral
64,JH,left,left,0,0.6564173080000728,left,1,valid
65,JH,left,left,0,0.6504031499998746,left,1,valid
66,JH,none,right,0,0.8663144070001181,left,0,neutral
67,JH,right,right,1,0.4381458349998866,right,1,valid
68,JH,left,left,0,NA,left,1,valid
69,JH,none,left,0,0.6312390709999818,left,1,neutral
70,JH,none,left,0,0.8346058310003173,left,1,neutral
71,JH,right,right,1,0.6990933590000168,right,1,valid
72,JH,none,left,0,0.6043118310003592,left,1,neutral
73,JH,left,left,0,0.41496975600011865,left,1,valid
74,JH,right,left,0,0.7175860000002103,left,1,invalid
75,JH,right,right,1,0.5857637459998841,right,1,valid
76,JH,none,right,1,0.5772476560000541,right,1,neutral
77,JH,none,right,1,0.757285574999969,right,1,neutral
78,JH,none,right,1,0.950872980999975,right,1,neutral
79,JH,right,right,1,0.564356212000348,right,1,valid
80,JH,left,left,0,0.5018182049998359,left,1,valid
81,JH,left,left,0,0.6575012059997789,left,1,valid
82,JH,none,right,1,0.8746510380001382,right,1,neutral
83,JH,none,left,0,0.7461508689998482,left,1,neutral
84,JH,none,left,0,0.6962897690000318,left,1,neutral
85,JH,none,right,1,1.2612515689997963,right,1,neutral
86,JH,right,right,1,0.9509278639998228,right,1,valid
87,JH,none,right,0,0.9653231050001524,left,0,neutral
88,JH,right,right,1,0.5814191640001809,right,1,valid
89,JH,none,right,1,0.6690276429999358,right,1,neutral
90,JH,none,left,0,0.9662527369996496,left,1,neutral
91,JH,right,right,1,0.6884082649999073,right,1,valid
92,JH,none,right,0,0.8381645150002441,left,0,neutral
93,JH,none,right,1,0.6151992349996362,right,1,neutral
94,JH,left,left,0,0.5426194579999901,left,1,valid
95,JH,none,right,1,0.6933270130002711,right,1,neutral
96,JH,none,right,1,0.8031053919999067,right,1,neutral
97,JH,right,right,1,0.5929500829997778,right,1,valid
98,JH,none,right,1,0.6087560740002118,right,1,neutral
99,JH,none,left,0,0.7197321119997468,left,1,neutral
100,JH,left,left,0,0.4593463060000431,left,1,valid
101,JH,right,left,0,0.6579799920000369,left,1,invalid
102,JH,none,left,0,0.6695298009999533,left,1,neutral
103,JH,left,left,0,0.5691570789999787,left,1,valid
104,JH,none,left,0,0.6536461890000282,left,1,neutral
105,JH,none,left,1,1.1574345939998238,right,0,neutral
106,JH,none,right,0,0.6139586780000172,left,0,neutral
107,JH,none,left,0,0.9127722739999626,left,1,neutral
108,JH,right,left,0,0.7391103919999296,left,1,invalid
109,JH,right,right,1,0.8027885050000805,right,1,valid
110,JH,none,right,1,0.8202984780000406,right,1,neutral
111,JH,left,left,0,0.6673612699996738,left,1,valid
112,JH,none,left,0,0.5558384060000208,left,1,neutral
113,JH,left,left,0,0.7281642370003283,left,1,valid
114,JH,none,right,1,0.9525469850000264,right,1,neutral
115,JH,none,right,1,0.7498310470000433,right,1,neutral
116,JH,right,right,1,0.7326113610001812,right,1,valid
117,JH,none,left,1,1.166571673999897,right,0,neutral
118,JH,none,right,1,0.626989968000089,right,1,neutral
119,JH,left,left,0,0.5573249199997008,left,1,valid
120,JH,left,left,0,0.5846937900000739,left,1,valid
121,JH,right,right,1,0.7994457529998726,right,1,valid
122,JH,left,left,0,0.4635100689997671,left,1,valid
123,JH,left,left,0,0.3647067070000958,left,1,valid
124,JH,left,left,1,1.043444991999877,right,0,valid
125,JH,none,left,1,0.9518795280000631,right,0,neutral
126,JH,right,right,1,0.7764137269996354,right,1,valid
127,JH,none,left,0,0.7031124229997658,left,1,neutral
128,JH,none,right,1,0.6997532460000002,right,1,neutral
129,JH,none,right,1,0.6946970079998209,right,1,neutral
130,JH,right,right,1,0.5358293929998581,right,1,valid
131,JH,left,left,0,0.7623919550001119,left,1,valid
132,JH,left,right,1,0.7385954249998576,right,1,invalid
133,JH,none,right,1,0.6936746780002068,right,1,neutral
134,JH,left,right,1,0.6672788270002457,right,1,invalid
135,JH,right,right,1,0.5385048039997855,right,1,valid
136,JH,none,left,0,0.694068729999799,left,1,neutral
137,JH,right,right,1,0.45816813999999795,right,1,valid
138,JH,none,left,0,0.600160735999907,left,1,neutral
139,JH,none,left,0,1.0247217259998251,left,1,neutral
140,JH,right,right,1,1.23286742900018,right,1,valid
141,JH,left,right,1,0.9009055099995747,right,1,invalid
142,JH,right,right,1,0.6720644359998005,right,1,valid
143,JH,right,left,0,0.7654356819998611,left,1,invalid
144,JH,none,left,0,1.122946469999988,left,1,neutral
145,JH,left,left,0,0.8072970329999407,left,1,valid
146,JH,left,left,0,0.570635274000324,left,1,valid
147,JH,right,left,0,NA,left,1,invalid
148,JH,none,right,1,0.4620501540002806,right,1,neutral
149,JH,left,left,0,0.7438599189999877,left,1,valid
150,JH,none,left,1,0.9957266930000516,right,0,neutral
151,JH,none,left,0,0.7808276169998862,left,1,neutral
152,JH,right,right,0,1.247689559000264,left,0,valid
153,JH,right,right,1,0.5627984089996971,right,1,valid
154,JH,none,right,1,0.6505981949999295,right,1,neutral
155,JH,none,right,1,0.6573763390001659,right,1,neutral
156,JH,left,right,0,1.0194931709997943,left,0,invalid
157,JH,right,right,1,0.7211674400000447,right,1,valid
158,JH,none,left,0,0.6102658550003071,left,1,neutral
159,JH,none,left,0,0.960512251000182,left,1,neutral
0,NS,right,right,1,0.8242111529999647,right,1,valid
1,NS,none,left,0,0.9583747470001072,left,1,neutral
2,NS,right,right,1,0.8871335149999595,right,1,valid
3,NS,none,right,1,1.2323268799999596,right,1,neutral
4,NS,none,right,1,1.3791126390000272,right,1,neutral
5,NS,none,left,0,NA,left,1,neutral
6,NS,left,left,0,0.822891201000175,left,1,valid
7,NS,none,right,1,0.733929198999931,right,1,neutral
8,NS,left,left,0,0.8055872850000014,left,1,valid
9,NS,left,left,0,1.1417450849999111,left,1,valid
10,NS,left,left,0,0.9262072030001036,left,1,valid
11,NS,none,left,1,0.8713565680000102,right,0,neutral
12,NS,none,right,1,0.99594437199994,right,1,neutral
13,NS,right,right,1,0.6785442739999326,right,1,valid
14,NS,left,right,1,1.0157437510001728,right,1,invalid
15,NS,left,left,0,0.6295738900000742,left,1,valid
16,NS,none,left,1,0.7786809379999795,right,0,neutral
17,NS,right,right,1,0.6022835199999008,right,1,valid
18,NS,left,left,0,1.2622835509998822,left,1,valid
19,NS,none,right,1,0.8442001959999743,right,1,neutral
20,NS,left,left,1,0.8242381380000552,right,0,valid
21,NS,none,left,1,0.8585876719998851,right,0,neutral
22,NS,right,right,1,0.73435070000005,right,1,valid
23,NS,none,right,1,0.9779655820000244,right,1,neutral
24,NS,none,left,1,1.2922858619999715,right,0,neutral
25,NS,right,right,1,0.7773790440000994,right,1,valid
26,NS,none,left,0,1.1613657850000436,left,1,neutral
27,NS,right,right,1,0.657835698000099,right,1,valid
28,NS,none,right,1,1.0309189580000293,right,1,neutral
29,NS,none,right,0,0.8664039489999595,left,0,neutral
30,NS,right,right,1,0.8249379510000381,right,1,valid
31,NS,none,left,0,0.7226598449999528,left,1,neutral
32,NS,left,left,1,0.6969222380000701,right,0,valid
33,NS,none,right,0,1.2761296779999611,left,0,neutral
34,NS,left,left,0,0.7354032590001225,left,1,valid
35,NS,none,left,1,0.7265014409999822,right,0,neutral
36,NS,right,left,0,0.920830813999828,left,1,invalid
37,NS,left,left,0,0.7151039370000944,left,1,valid
38,NS,none,left,0,1.0728663879999658,left,1,neutral
39,NS,none,right,1,0.7619627509998281,right,1,neutral
40,NS,right,right,1,0.739271601999917,right,1,valid
41,NS,none,left,0,0.8786064590001388,left,1,neutral
42,NS,none,left,1,0.8766843769999468,right,0,neutral
43,NS,none,right,1,0.6729649349999818,right,1,neutral
44,NS,none,right,1,0.7707760329999473,right,1,neutral
45,NS,left,right,1,0.990572985999961,right,1,invalid
46,NS,right,right,1,0.7061758349998399,right,1,valid
47,NS,right,right,1,0.7168488609997894,right,1,valid
48,NS,right,right,1,0.46664283199993406,right,1,valid
49,NS,right,right,1,0.6649116880000747,right,1,valid
50,NS,left,left,0,0.6779704439998113,left,1,valid
51,NS,left,left,1,0.6622263980000298,right,0,valid
52,NS,none,left,0,1.0031233880001764,left,1,neutral
53,NS,none,left,0,1.146827574000099,left,1,neutral
54,NS,none,left,1,1.0237117530000432,right,0,neutral
55,NS,right,left,0,0.8455802020000647,left,1,invalid
56,NS,none,left,0,1.0430512739999358,left,1,neutral
57,NS,right,right,1,0.6883388969999942,right,1,valid
58,NS,left,left,0,1.0161839889999555,left,1,valid
59,NS,none,right,1,0.8286123990001215,right,1,neutral
60,NS,none,right,1,0.7094849259999592,right,1,neutral
61,NS,left,right,1,0.8005397780000294,right,1,invalid
62,NS,right,right,1,0.646661019000021,right,1,valid
63,NS,left,right,1,1.0004639680000764,right,1,invalid
64,NS,left,left,0,1.0577406919999248,left,1,valid
65,NS,none,right,1,0.8668065940000815,right,1,neutral
66,NS,left,left,0,NA,left,1,valid
67,NS,none,left,0,0.8923251530000016,left,1,neutral
68,NS,none,left,1,0.6195467139998527,right,0,neutral
69,NS,none,left,1,0.839512035000098,right,0,neutral
70,NS,right,right,1,0.6190028769999572,right,1,valid
71,NS,none,right,1,0.6090400359998966,right,1,neutral
72,NS,none,right,1,0.9562810150000588,right,1,neutral
73,NS,none,right,1,0.6049474779999855,right,1,neutral
74,NS,right,left,1,0.5517201389998263,right,0,invalid
75,NS,right,left,0,0.8997846620000018,left,1,invalid
76,NS,left,left,1,0.8151953890001096,right,0,valid
77,NS,none,right,1,0.5849171499999102,right,1,neutral
78,NS,none,left,1,0.7331731639999362,right,0,neutral
79,NS,none,right,0,1.0356192340000234,left,0,neutral
80,NS,right,right,1,0.3888925229998677,right,1,valid
81,NS,left,left,0,0.7326033150000058,left,1,valid
82,NS,none,right,1,0.771181641999874,right,1,neutral
83,NS,left,left,0,0.547552153000197,left,1,valid
84,NS,none,right,1,1.1297445809998408,right,1,neutral
85,NS,none,left,1,0.7158248179998736,right,0,neutral
86,NS,none,right,1,0.6621085529998254,right,1,neutral
87,NS,none,left,0,0.6193114409998088,left,1,neutral
88,NS,right,right,1,0.4517592279999008,right,1,valid
89,NS,none,left,0,0.6592045190000135,left,1,neutral
90,NS,right,right,1,0.3916847150001104,right,1,valid
91,NS,none,right,1,1.0717276979999042,right,1,neutral
92,NS,right,right,1,0.4998282470000958,right,1,valid
93,NS,none,left,0,0.7195824170000833,left,1,neutral
94,NS,none,left,1,1.1118644810001117,right,0,neutral
95,NS,left,right,0,0.7007373010001174,left,0,invalid
96,NS,right,right,1,0.5834631469999749,right,1,valid
97,NS,left,left,0,0.6076301909999984,left,1,valid
98,NS,none,left,1,0.789957202999858,right,0,neutral
99,NS,none,left,0,0.6910092830000849,left,1,neutral
100,NS,none,left,1,0.7996258949999628,right,0,neutral
101,NS,right,right,1,1.0448598649998075,right,1,valid
102,NS,left,right,1,0.9694580060001954,right,1,invalid
103,NS,left,left,0,0.6341781789999459,left,1,valid
104,NS,right,right,1,0.4780795870001384,right,1,valid
105,NS,left,left,0,0.6643843790000119,left,1,valid
106,NS,none,right,1,0.6685673049998968,right,1,neutral
107,NS,left,left,0,0.9945914820000326,left,1,valid
108,NS,left,left,1,0.6324595080000108,right,0,valid
109,NS,none,left,1,0.710818879000044,right,0,neutral
110,NS,none,left,0,0.6807441350001682,left,1,neutral
111,NS,left,left,1,1.1444104150000385,right,0,valid
112,NS,right,right,1,0.6101371519998793,right,1,valid
113,NS,left,left,0,0.5610764059999838,left,1,valid
114,NS,none,left,1,0.49786063900000954,right,0,neutral
115,NS,none,right,1,0.7540375989999575,right,1,neutral
116,NS,right,left,1,1.262577543000134,right,0,invalid
117,NS,right,right,1,0.6797799169999053,right,1,valid
118,NS,right,left,0,0.9415808740000102,left,1,invalid
119,NS,none,left,1,0.6175192630000765,right,0,neutral
120,NS,left,left,0,0.5321258320000197,left,1,valid
121,NS,none,left,0,0.8137533350000012,left,1,neutral
122,NS,none,right,1,0.8003134310001769,right,1,neutral
123,NS,right,right,1,0.7241102010000304,right,1,valid
124,NS,right,left,1,0.5039289660001032,right,0,invalid
125,NS,none,right,1,0.737492876000033,right,1,neutral
126,NS,none,right,1,0.8600506909999694,right,1,neutral
127,NS,left,right,1,0.9046785389998604,right,1,invalid
128,NS,right,right,1,0.7517112909999923,right,1,valid
129,NS,none,left,0,1.3170777370000906,left,1,neutral
130,NS,left,right,1,1.245737586999894,right,1,invalid
131,NS,none,left,1,0.9947332889996688,right,0,neutral
132,NS,none,right,0,1.1589727599998696,left,0,neutral
133,NS,left,left,0,0.890937385000143,left,1,valid
134,NS,none,right,1,1.1021211100000985,right,1,neutral
135,NS,none,right,1,1.27333143199985,right,1,neutral
136,NS,left,left,0,0.8838092040000447,left,1,valid
137,NS,none,left,1,0.7454200150000361,right,0,neutral
138,NS,none,right,1,1.084409765000146,right,1,neutral
139,NS,none,left,0,1.136291243999949,left,1,neutral
140,NS,none,right,1,1.1196648089999144,right,1,neutral
141,NS,right,right,1,0.8367497700000968,right,1,valid
142,NS,left,left,0,0.7331032150000283,left,1,valid
143,NS,none,right,1,0.7689354799999819,right,1,neutral
144,NS,left,left,0,0.6629936990002534,left,1,valid
145,NS,none,right,1,1.0415503350000108,right,1,neutral
146,NS,none,left,0,0.8345072750003055,left,1,neutral
147,NS,none,right,1,0.7458948200001032,right,1,neutral
148,NS,none,right,1,0.8912609250000969,right,1,neutral
149,NS,right,right,1,0.45984202499994353,right,1,valid
150,NS,left,left,0,0.7021157399999538,left,1,valid
151,NS,right,right,1,0.8961098600002515,right,1,valid
152,NS,right,right,1,0.7417874590000793,right,1,valid
153,NS,left,left,0,1.234699909000028,left,1,valid
154,NS,none,right,1,1.099974045000181,right,1,neutral
155,NS,right,left,1,0.74657332400011,right,0,invalid
156,NS,right,right,1,0.7470752849999371,right,1,valid
157,NS,none,right,1,0.7744975249997879,right,1,neutral
158,NS,none,left,1,0.9558037400001922,right,0,neutral
159,NS,none,left,0,0.789083109999865,left,1,neutral
0,rh,right,right,1,0.3731065000174567,right,1,valid
1,rh,none,right,1,0.583426600031089,right,1,neutral
2,rh,none,right,1,0.4822441000142135,right,1,neutral
3,rh,none,right,1,0.665333200013265,right,1,neutral
4,rh,right,left,0,0.6476420999970287,left,1,invalid
5,rh,none,left,0,0.6643226000014693,left,1,neutral
6,rh,right,left,0,0.8933633000124246,left,1,invalid
7,rh,none,left,0,0.6347076999954879,left,1,neutral
8,rh,right,left,1,0.455571600003168,right,0,invalid
9,rh,left,left,0,0.5593493999913335,left,1,valid
10,rh,none,left,0,0.6064972999738529,left,1,neutral
11,rh,left,left,0,0.4257300000172109,left,1,valid
12,rh,none,right,1,0.622725100023672,right,1,neutral
13,rh,left,left,0,0.5313854000414722,left,1,valid
14,rh,none,right,1,0.7079645000048913,right,1,neutral
15,rh,right,right,0,1.3053814999875613,left,0,valid
16,rh,none,right,1,0.5753429000033066,right,1,neutral
17,rh,none,left,0,0.5263905000174418,left,1,neutral
18,rh,right,right,1,0.44561890000477433,right,1,valid
19,rh,none,left,0,0.461300199967809,left,1,neutral
20,rh,right,right,1,0.3290591999539174,right,1,valid
21,rh,none,right,1,0.5950948999961838,right,1,neutral
22,rh,none,left,0,0.5338004999794066,left,1,neutral
23,rh,left,left,0,NA,left,1,valid
24,rh,none,right,1,0.6019108999753371,right,1,neutral
25,rh,none,left,0,0.48681450000731274,left,1,neutral
26,rh,none,left,0,0.5562000999925658,left,1,neutral
27,rh,none,right,0,0.4874001999851316,left,0,neutral
28,rh,right,right,1,0.2286059000180103,right,1,valid
29,rh,right,right,1,0.2736690999590792,right,1,valid
30,rh,left,left,0,0.5050399000174366,left,1,valid
31,rh,right,right,1,0.3238334999768995,right,1,valid
32,rh,left,right,0,0.29646759998286143,left,0,invalid
33,rh,right,right,1,0.30938299995614216,right,1,valid
34,rh,none,left,0,0.5674687999999151,left,1,neutral
35,rh,none,right,1,0.6220613000332378,right,1,neutral
36,rh,none,right,0,0.438879499968607,left,0,neutral
37,rh,left,right,0,0.39135849999729544,left,0,invalid
38,rh,none,right,1,0.4747530000167899,right,1,neutral
39,rh,left,left,0,0.5794714000076056,left,1,valid
40,rh,none,right,1,0.6384823000407778,right,1,neutral
41,rh,left,left,1,0.6041274999734014,right,0,valid
42,rh,none,left,0,0.4715139999752864,left,1,neutral
43,rh,none,left,0,0.450611200009007,left,1,neutral
44,rh,left,left,0,0.5277218999690376,left,1,valid
45,rh,left,left,0,0.6003137999796309,left,1,valid
46,rh,right,right,1,0.4728250000043772,right,1,valid
47,rh,right,left,1,0.38658079999731854,right,0,invalid
48,rh,right,right,1,0.20686450001085177,right,1,valid
49,rh,left,left,1,0.5394528000033461,right,0,valid
50,rh,none,right,1,0.5944767000037245,right,1,neutral
51,rh,left,left,0,0.3677937000175006,left,1,valid
52,rh,left,left,0,0.5707804000121541,left,1,valid
53,rh,none,left,0,0.7308174999780022,left,1,neutral
54,rh,none,right,1,0.4889507000334561,right,1,neutral
55,rh,none,right,1,0.5331830999930389,right,1,neutral
56,rh,none,right,1,0.4662343999953009,right,1,neutral
57,rh,none,left,1,0.3884272999712266,right,0,neutral
58,rh,right,right,1,0.3226615999592468,right,1,valid
59,rh,left,left,0,0.4091556000057608,left,1,valid
60,rh,none,right,0,0.5326249999925494,left,0,neutral
61,rh,none,right,1,0.5022050999687053,right,1,neutral
62,rh,none,left,1,0.428580499952659,right,0,neutral
63,rh,right,right,1,0.6679710999596864,right,1,valid
64,rh,right,right,1,0.3896451999899,right,1,valid
65,rh,none,left,0,0.5038413999718614,left,1,neutral
66,rh,left,right,0,0.2962273000157438,left,0,invalid
67,rh,none,right,1,0.5153323000413366,right,1,neutral
68,rh,right,right,1,0.3278662000084296,right,1,valid
69,rh,left,left,0,0.307011800003238,left,1,valid
70,rh,left,left,0,0.4452212000032887,left,1,valid
71,rh,right,right,1,0.4522725000279024,right,1,valid
72,rh,none,left,0,0.4543825999717228,left,1,neutral
73,rh,none,left,0,0.515398399962578,left,1,neutral
74,rh,none,left,0,0.4841556000174023,left,1,neutral
75,rh,none,left,1,0.7184113000403158,right,0,neutral
76,rh,left,left,0,0.38402419997146353,left,1,valid
77,rh,none,left,0,0.4997311999904923,left,1,neutral
78,rh,right,right,1,0.8334563000244088,right,1,valid
79,rh,left,right,0,0.4174724000040442,left,0,invalid
80,rh,left,left,0,0.6108124000020325,left,1,valid
81,rh,right,right,1,0.2731527999858372,right,1,valid
82,rh,none,right,0,0.5667186999926344,left,0,neutral
83,rh,right,right,1,0.722135599993635,right,1,valid
84,rh,right,right,1,0.54296529997373,right,1,valid
85,rh,none,right,1,0.5356166000128724,right,1,neutral
86,rh,none,left,1,0.4790678000426851,right,0,neutral
87,rh,left,left,0,0.29432560002896935,left,1,valid
88,rh,right,right,1,0.5435877000563778,right,1,valid
89,rh,left,left,0,0.5133062999811955,left,1,valid
90,rh,right,left,1,0.3941056999610737,right,0,invalid
91,rh,right,right,1,0.270574200025294,right,1,valid
92,rh,left,left,0,0.6270706999930553,left,1,valid
93,rh,none,right,1,0.4044704000116326,right,1,neutral
94,rh,none,right,0,0.4175952000077814,left,0,neutral
95,rh,none,right,1,0.4498499999754131,right,1,neutral
96,rh,none,left,0,0.48570749995997176,left,1,neutral
97,rh,left,left,0,0.3871155999950133,left,1,valid
98,rh,none,right,1,0.45870179997291416,right,1,neutral
99,rh,none,left,1,0.3953437000163831,right,0,neutral
100,rh,right,right,1,0.390565300011076,right,1,valid
101,rh,right,right,1,0.29107269999803975,right,1,valid
102,rh,left,left,0,0.3658860999858007,left,1,valid
103,rh,none,left,1,0.6110594000201672,right,0,neutral
104,rh,left,left,0,0.34611430001677945,left,1,valid
105,rh,none,left,0,0.4488525000051595,left,1,neutral
106,rh,right,right,1,0.2652676999568939,right,1,valid
107,rh,none,right,1,0.47101020003901795,right,1,neutral
108,rh,none,right,1,0.8138944000238553,right,1,neutral
109,rh,left,left,0,0.41814419999718666,left,1,valid
110,rh,none,right,1,0.4847610000288114,right,1,neutral
111,rh,none,left,0,0.4649791999836452,left,1,neutral
112,rh,none,right,1,0.6033956000464968,right,1,neutral
113,rh,none,left,0,0.4098050000029616,left,1,neutral
114,rh,none,right,1,0.4851675999816507,right,1,neutral
115,rh,right,right,1,0.27324379998026416,right,1,valid
116,rh,right,right,1,0.37487649999093264,right,1,valid
117,rh,none,left,1,0.3616667999885976,right,0,neutral
118,rh,right,right,1,0.35698989999946207,right,1,valid
119,rh,left,right,0,0.3739722999744117,left,0,invalid
120,rh,none,left,0,0.4356219000183046,left,1,neutral
121,rh,none,left,1,0.4891638999688439,right,0,neutral
122,rh,left,right,0,0.39579560002312064,left,0,invalid
123,rh,left,left,0,0.24335549998795616,left,1,valid
124,rh,none,left,0,0.5471145999617875,left,1,neutral
125,rh,right,right,1,0.2933226000168361,right,1,valid
126,rh,right,right,1,0.7627518000081182,right,1,valid
127,rh,none,left,0,0.5729010999784805,left,1,neutral
128,rh,left,left,0,0.4076427999534644,left,1,valid
129,rh,none,right,1,0.4645449999952689,right,1,neutral
130,rh,none,right,1,0.5159557000151835,right,1,neutral
131,rh,right,right,1,0.3981307999929413,right,1,valid
132,rh,none,right,0,0.48487739998381585,left,0,neutral
133,rh,right,left,1,0.2776407000492327,right,0,invalid
134,rh,left,left,0,0.25481909996597096,left,1,valid
135,rh,none,left,1,0.5441555000143126,right,0,neutral
136,rh,left,left,0,0.5875650999951176,left,1,valid
137,rh,none,right,1,0.5431109999772161,right,1,neutral
138,rh,none,right,1,0.527566900011152,right,1,neutral
139,rh,left,right,0,0.34537019999697804,left,0,invalid
140,rh,left,left,0,0.3810224999906495,left,1,valid
141,rh,none,right,1,0.5562000999925658,right,1,neutral
142,rh,none,left,0,0.4238065999816172,left,1,neutral
143,rh,none,left,0,0.5020568000036292,left,1,neutral
144,rh,none,left,0,0.435801999992691,left,1,neutral
145,rh,right,right,1,0.2574364999891259,right,1,valid
146,rh,right,right,1,0.3628244000137784,right,1,valid
147,rh,right,left,1,0.4400628000148572,right,0,invalid
148,rh,none,left,0,0.49587739998241886,left,1,neutral
149,rh,left,right,0,0.38642329996218905,left,0,invalid
150,rh,none,right,1,0.5903102000011131,right,1,neutral
151,rh,right,left,1,0.3643407000345178,right,0,invalid
152,rh,none,right,0,0.5021118000149727,left,0,neutral
153,rh,left,left,0,0.3695657000062056,left,1,valid
154,rh,left,left,0,0.2730155000463128,left,1,valid
155,rh,left,left,0,0.8057366999564692,left,1,valid
156,rh,none,left,0,0.4935220999759622,left,1,neutral
157,rh,none,left,0,0.5553361000493169,left,1,neutral
158,rh,none,left,0,0.5813740000012331,left,1,neutral
159,rh,none,right,1,0.5875838000210933,right,1,neutral
0,sb,left,left,0,0.43071990000316873,left,1,valid
1,sb,none,left,1,0.3362477999908151,right,0,neutral
2,sb,none,right,1,0.7057000000058906,right,1,neutral
3,sb,none,left,1,0.4181665000069188,right,0,neutral
4,sb,none,right,1,0.28204059999552555,right,1,neutral
5,sb,left,left,0,0.9196444999979576,left,1,valid
6,sb,none,left,0,0.8675415000034263,left,1,neutral
7,sb,none,right,1,0.31296650000149384,right,1,neutral
8,sb,none,right,1,0.6394901000021491,right,1,neutral
9,sb,none,right,0,0.27560220001032576,left,0,neutral
10,sb,none,right,0,0.7060162999987369,left,0,neutral
11,sb,none,left,0,0.6646781000017654,left,1,neutral
12,sb,right,right,1,0.3328334000107134,right,1,valid
13,sb,none,left,0,0.27427629999874625,left,1,neutral
14,sb,none,right,0,0.522677200002363,left,0,neutral
15,sb,right,right,1,0.4462449999991805,right,1,valid
16,sb,left,left,0,0.40530779999971855,left,1,valid
17,sb,right,right,1,0.2769638000027044,right,1,valid
18,sb,none,right,1,0.3126429999974789,right,1,neutral
19,sb,left,left,0,0.3447998999909032,left,1,valid
20,sb,left,left,0,0.26180579999345355,left,1,valid
21,sb,none,left,0,0.3340823000035016,left,1,neutral
22,sb,right,right,1,0.35316459999012295,right,1,valid
23,sb,none,left,1,0.2983421999961138,right,0,neutral
24,sb,right,left,1,0.28029710000555497,right,0,invalid
25,sb,right,right,1,0.29159039999649394,right,1,valid
26,sb,none,left,1,1.006282900008955,right,0,neutral
27,sb,left,right,0,0.6147877999901539,left,0,invalid
28,sb,right,right,0,0.3839602000080049,left,0,valid
29,sb,none,left,0,0.3165997000032803,left,1,neutral
30,sb,right,left,1,0.3336991999967722,right,0,invalid
31,sb,none,left,0,0.3495034000079613,left,1,neutral
32,sb,right,right,1,0.35841670000809245,right,1,valid
33,sb,none,left,1,0.27370360000350047,right,0,neutral
34,sb,right,right,1,0.34946640000271145,right,1,valid
35,sb,none,right,0,0.3308630999963498,left,0,neutral
36,sb,none,right,1,0.48716910000075586,right,1,neutral
37,sb,left,right,0,0.30047319999721367,left,0,invalid
38,sb,none,right,1,0.5082958999992115,right,1,neutral
39,sb,right,right,1,0.41936909999640193,right,1,valid
40,sb,right,right,1,0.29207290000340436,right,1,valid
41,sb,right,right,1,0.3209350999968592,right,1,valid
42,sb,right,right,1,0.42805779998889193,right,1,valid
43,sb,none,right,0,0.6089611999923363,left,0,neutral
44,sb,none,right,1,0.37858239999332,right,1,neutral
45,sb,none,right,0,0.35983450000640005,left,0,neutral
46,sb,left,left,0,0.472265200005495,left,1,valid
47,sb,left,left,0,0.4187252999981866,left,1,valid
48,sb,right,right,1,0.32341480000468437,right,1,valid
49,sb,left,left,0,0.3124670999968657,left,1,valid
50,sb,none,right,0,0.30581920000258833,left,0,neutral
51,sb,none,left,1,0.33404020000307355,right,0,neutral
52,sb,none,right,1,0.33355320000555366,right,1,neutral
53,sb,left,left,0,0.340187000008882,left,1,valid
54,sb,left,right,0,0.3047328000102425,left,0,invalid
55,sb,right,left,1,0.3840438000042923,right,0,invalid
56,sb,left,left,0,0.44882930000312626,left,1,valid
57,sb,none,left,1,0.32779280000249855,right,0,neutral
58,sb,left,left,0,0.3573755999968853,left,1,valid
59,sb,none,right,0,0.754842499998631,left,0,neutral
60,sb,none,right,1,0.3215289999934612,right,1,neutral
61,sb,left,left,0,1.1241978000034578,left,1,valid
62,sb,none,right,0,0.30949990000226535,left,0,neutral
63,sb,none,right,0,0.459808300001896,left,0,neutral
64,sb,none,left,1,0.5727430999977514,right,0,neutral
65,sb,right,right,1,0.4222917999868514,right,1,valid
66,sb,none,left,1,0.42711570000392385,right,0,neutral
67,sb,right,right,1,0.3916122000082396,right,1,valid
68,sb,left,left,0,0.459960799998953,left,1,valid
69,sb,left,left,0,0.41331560000253376,left,1,valid
70,sb,right,right,1,0.3523669999995036,right,1,valid
71,sb,left,left,0,0.31122939998749644,left,1,valid
72,sb,right,left,1,0.49589069999638014,right,0,invalid
73,sb,none,left,0,0.46119309999630786,left,1,neutral
74,sb,left,left,0,0.5568110000021989,left,1,valid
75,sb,none,left,0,0.322174000000814,left,1,neutral
76,sb,none,left,1,0.278196699990076,right,0,neutral
77,sb,none,left,1,0.3219865999999456,right,0,neutral
78,sb,none,left,1,0.3541858999960823,right,0,neutral
79,sb,left,right,0,0.34905479999724776,left,0,invalid
80,sb,none,left,0,0.26982570000109263,left,1,neutral
81,sb,right,right,1,0.41134380000585224,right,1,valid
82,sb,left,left,0,0.30044510000152513,left,1,valid
83,sb,left,left,0,0.31239219999406487,left,1,valid
84,sb,none,right,1,0.3483304999972461,right,1,neutral
85,sb,none,left,1,0.421578599998611,right,0,neutral
86,sb,none,right,0,0.5831520999927307,left,0,neutral
87,sb,left,right,0,0.33201919999555685,left,0,invalid
88,sb,left,left,0,0.3238641999923857,left,1,valid
89,sb,none,left,0,0.46066029999929015,left,1,neutral
90,sb,none,left,0,0.32063539999944624,left,1,neutral
91,sb,left,right,0,0.43587709999701474,left,0,invalid
92,sb,left,left,0,0.4396763999975519,left,1,valid
93,sb,left,left,0,0.3196096000028774,left,1,valid
94,sb,left,left,0,0.26146150000568014,left,1,valid
95,sb,none,left,1,0.32424400000309106,right,0,neutral
96,sb,left,left,0,0.269757700007176,left,1,valid
97,sb,none,left,0,0.38053920000675134,left,1,neutral
98,sb,right,right,1,0.3506879000051413,right,1,valid
99,sb,right,left,1,0.30779900000197813,right,0,invalid
100,sb,none,right,1,0.29648760000418406,right,1,neutral
101,sb,left,left,0,0.3726345999893965,left,1,valid
102,sb,right,right,1,0.4237734999915119,right,1,valid
103,sb,right,right,0,0.29677539999829605,left,0,valid
104,sb,none,left,1,0.3349374999961583,right,0,neutral
105,sb,none,right,0,0.32856619999802206,left,0,neutral
106,sb,right,right,1,0.319724100001622,right,1,valid
107,sb,left,left,0,0.30610250000609085,left,1,valid
108,sb,left,left,0,0.2647131999983685,left,1,valid
109,sb,left,left,0,0.35800940000626724,left,1,valid
110,sb,none,right,0,0.3250237000029301,left,0,neutral
111,sb,left,right,1,0.2771229000063613,right,1,invalid
112,sb,none,right,1,0.36975369999709073,right,1,neutral
113,sb,none,left,0,0.414926799989189,left,1,neutral
114,sb,none,left,1,0.5398565000068629,right,0,neutral
115,sb,left,left,0,0.38012060000619385,left,1,valid
116,sb,left,left,0,0.3009079000039492,left,1,valid
117,sb,left,left,0,0.3186740999954054,left,1,valid
118,sb,none,left,0,0.3466496000037296,left,1,neutral
119,sb,right,right,1,1.253331400002935,right,1,valid
120,sb,right,right,1,0.40765370000735857,right,1,valid
121,sb,none,left,1,0.4304135000129463,right,0,neutral
122,sb,none,right,0,0.28901110000151675,left,0,neutral
123,sb,none,left,1,0.3639629999961471,right,0,neutral
124,sb,right,left,1,0.40881680000165943,right,0,invalid
125,sb,none,left,0,0.3658993999997619,left,1,neutral
126,sb,right,right,1,0.27302019999478944,right,1,valid
127,sb,none,right,1,0.5202094999986002,right,1,neutral
128,sb,none,right,0,0.2822101999918232,left,0,neutral
129,sb,left,right,0,0.431340099996305,left,0,invalid
130,sb,none,left,0,0.2859788999921875,left,1,neutral
131,sb,none,right,0,0.3245515000016894,left,0,neutral
132,sb,right,left,1,0.3084326999960467,right,0,invalid
133,sb,none,right,0,1.209130199989886,left,0,neutral
134,sb,right,right,1,0.383397799989325,right,1,valid
135,sb,right,right,1,0.3483855999947991,right,1,valid
136,sb,none,right,1,0.32766070000070613,right,1,neutral
137,sb,none,right,0,0.26209940000262577,left,0,neutral
138,sb,left,left,0,0.2465529999899445,left,1,valid
139,sb,none,right,0,0.3304857000039192,left,0,neutral
140,sb,none,left,1,0.2712039000034565,right,0,neutral
141,sb,none,left,1,0.2857640000001993,right,0,neutral
142,sb,right,right,1,0.23726429999805987,right,1,valid
143,sb,right,left,1,0.4502591000054963,right,0,invalid
144,sb,none,right,1,0.27250809999532066,right,1,neutral
145,sb,none,right,0,0.25205159999313764,left,0,neutral
146,sb,right,right,1,0.3462786000018241,right,1,valid
147,sb,right,right,1,0.24933859999873675,right,1,valid
148,sb,none,left,0,0.34388879999460187,left,1,neutral
149,sb,none,left,0,0.2617593000031775,left,1,neutral
150,sb,none,right,0,0.24731040000915527,left,0,neutral
151,sb,none,right,1,0.3034355999989202,right,1,neutral
152,sb,none,left,1,0.4430122999910964,right,0,neutral
153,sb,none,right,1,0.2341177000052994,right,1,neutral
154,sb,none,left,1,0.4527869000012288,right,0,neutral
155,sb,right,right,1,0.33362320000014734,right,1,valid
156,sb,right,right,1,0.301333399998839,right,1,valid
157,sb,right,right,1,0.26426579999679234,right,1,valid
158,sb,none,right,1,0.3595583999995142,right,1,neutral
159,sb,left,left,0,0.4093525999924168,left,1,valid
0,SS91,none,left,1,0.989415000003646,right,0,neutral
1,SS91,none,right,1,1.3572795999934897,right,1,neutral
2,SS91,none,left,0,NA,left,1,neutral
3,SS91,right,right,1,0.4279287999961525,right,1,valid
4,SS91,right,right,1,0.29629870000644587,right,1,valid
5,SS91,none,left,0,0.28274780001083855,left,1,neutral
6,SS91,none,right,1,0.7566941000113729,right,1,neutral
7,SS91,right,right,1,0.8451649000053294,right,1,valid
8,SS91,right,right,0,1.0455396000033943,left,0,valid
9,SS91,none,right,0,0.8005658999900334,left,0,neutral
10,SS91,right,right,1,0.49660499999299645,right,1,valid
11,SS91,none,left,1,1.2601703999971503,right,0,neutral
12,SS91,left,right,0,NA,left,0,invalid
13,SS91,right,right,1,0.5836683000088669,right,1,valid
14,SS91,left,left,0,0.4184665000066161,left,1,valid
15,SS91,none,left,1,1.3782257000129905,right,0,neutral
16,SS91,left,left,0,0.4882534999924246,left,1,valid
17,SS91,none,right,0,0.4999506000021938,left,0,neutral
18,SS91,none,left,1,0.4226529000006849,right,0,neutral
19,SS91,none,left,1,0.8726494000002276,right,0,neutral
20,SS91,left,left,1,0.7065053999976953,right,0,valid
21,SS91,none,left,1,0.47770100001071114,right,0,neutral
22,SS91,left,left,0,0.6456379000010202,left,1,valid
23,SS91,left,left,1,0.9923239000054308,right,0,valid
24,SS91,none,left,0,0.3242026999942027,left,1,neutral
25,SS91,none,left,0,0.4556490999966627,left,1,neutral
26,SS91,right,left,1,0.4587333999952534,right,0,invalid
27,SS91,none,right,0,0.573839599994244,left,0,neutral
28,SS91,left,left,1,0.6761222999921301,right,0,valid
29,SS91,right,right,0,0.5102860999904806,left,0,valid
30,SS91,right,right,1,0.32310799999686424,right,1,valid
31,SS91,none,right,1,0.8022612999920966,right,1,neutral
32,SS91,right,right,1,0.5520480000122916,right,1,valid
33,SS91,right,right,1,0.35393399999884423,right,1,valid
34,SS91,none,right,1,0.5468586000060895,right,1,neutral
35,SS91,none,right,0,0.5936017999920296,left,0,neutral
36,SS91,none,left,1,0.931625900004292,right,0,neutral
37,SS91,left,left,0,0.6777393000083975,left,1,valid
38,SS91,right,left,1,0.80003969999961555,right,0,invalid
39,SS91,left,left,0,0.32851259999733884,left,1,valid
40,SS91,none,left,1,0.8665357999998378,right,0,neutral
41,SS91,none,right,0,0.6336860000010347,left,0,neutral
42,SS91,none,right,1,0.5599980999977561,right,1,neutral
43,SS91,left,right,0,0.35263349999149796,left,0,invalid
44,SS91,none,right,1,0.4491701999941142,right,1,neutral
45,SS91,right,right,1,0.3455065000016475,right,1,valid
46,SS91,left,left,1,0.642881399995531,right,0,valid
47,SS91,left,left,0,0.3066106000042055,left,1,valid
48,SS91,left,left,0,0.5731866999994963,left,1,valid
49,SS91,none,right,1,0.3848531999974512,right,1,neutral
50,SS91,left,right,0,0.4236226000066381,left,0,invalid
51,SS91,none,right,1,0.33852409999235533,right,1,neutral
52,SS91,right,left,1,0.416739400010556,right,0,invalid
53,SS91,none,right,0,0.5890896999917459,left,0,neutral
54,SS91,none,left,1,0.5834750999929383,right,0,neutral
55,SS91,none,left,1,0.6430928999907337,right,0,neutral
56,SS91,none,right,0,0.648259199995664,left,0,neutral
57,SS91,none,left,1,0.49132109999482054,right,0,neutral
58,SS91,left,left,0,0.383018099993933,left,1,valid
59,SS91,none,right,1,0.6057178999908501,right,1,neutral
60,SS91,left,left,0,0.4516328000026988,left,1,valid
61,SS91,none,left,1,0.557947499997681,right,0,neutral
62,SS91,right,right,1,0.39278039999771863,right,1,valid
63,SS91,none,left,1,0.670143299998017,right,0,neutral
64,SS91,left,right,0,0.3910087999975076,left,0,invalid
65,SS91,right,right,1,0.4288325999950757,right,1,valid
66,SS91,left,left,0,0.4092873000045074,left,1,valid
67,SS91,left,left,1,0.862427200001548,right,0,valid
68,SS91,right,right,1,0.41181769999093376,right,1,valid
69,SS91,none,left,1,0.571382199996151,right,0,neutral
70,SS91,right,left,1,0.498837100007222,right,0,invalid
71,SS91,none,right,1,0.5672639999975218,right,1,neutral
72,SS91,none,right,1,0.39700910000829026,right,1,neutral
73,SS91,left,left,0,0.4197837999963667,left,1,valid
74,SS91,right,right,1,0.39593039998726454,right,1,valid
75,SS91,right,right,1,0.46823319999384694,right,1,valid
76,SS91,none,right,1,0.8359252999944147,right,1,neutral
77,SS91,none,right,1,0.32808530000329483,right,1,neutral
78,SS91,none,left,1,0.3506351999967592,right,0,neutral
79,SS91,none,left,1,0.48434360000828747,right,0,neutral
80,SS91,right,right,0,0.4115772999939509,left,0,valid
81,SS91,none,left,1,0.4032144999946467,right,0,neutral
82,SS91,none,left,0,0.4670732999948086,left,1,neutral
83,SS91,right,right,1,0.44622979999985546,right,1,valid
84,SS91,none,left,1,0.41650659999868367,right,0,neutral
85,SS91,none,right,0,0.8656954000034602,left,0,neutral
86,SS91,left,left,0,0.40518870000960305,left,1,valid
87,SS91,none,right,0,0.6921643000096083,left,0,neutral
88,SS91,left,left,1,0.39811209999606945,right,0,valid
89,SS91,none,left,1,0.4730822999990778,right,0,neutral
90,SS91,left,left,0,0.3352945000078762,left,1,valid
91,SS91,none,right,0,0.4304427999886684,left,0,neutral
92,SS91,none,right,1,0.4375224000104936,right,1,neutral
93,SS91,right,right,1,0.37277430000540335,right,1,valid
94,SS91,none,right,1,0.3695590999996057,right,1,neutral
95,SS91,left,right,0,0.5763395999965724,left,0,invalid
96,SS91,none,right,1,0.6227244000037899,right,1,neutral
97,SS91,none,right,0,0.4289613000000827,left,0,neutral
98,SS91,none,left,1,0.3206642000004649,right,0,neutral
99,SS91,left,left,0,0.37686869999743067,left,1,valid
100,SS91,none,left,0,0.2970921000087401,left,1,neutral
101,SS91,right,right,1,0.4265902999904938,right,1,valid
102,SS91,right,left,1,0.582940200009034,right,0,invalid
103,SS91,right,right,1,0.32190409999748226,right,1,valid
104,SS91,right,right,1,0.3233131000015419,right,1,valid
105,SS91,right,right,1,0.2874015999987023,right,1,valid
106,SS91,none,right,1,0.4459717999998247,right,1,neutral
107,SS91,right,right,1,0.5416820000100415,right,1,valid
108,SS91,none,right,1,0.36314869999478105,right,1,neutral
109,SS91,left,left,0,0.42953920000582,left,1,valid
110,SS91,left,right,0,0.7413053000054788,left,0,invalid
111,SS91,left,left,1,0.6043667000049027,right,0,valid
112,SS91,none,right,1,0.3648715000017546,right,1,neutral
113,SS91,none,right,1,0.8534893000032753,right,1,neutral
114,SS91,left,left,0,0.3094347000005655,left,1,valid
115,SS91,none,right,1,0.31933179999759886,right,1,neutral
116,SS91,none,left,0,0.48312169998825993,left,1,neutral
117,SS91,none,left,1,0.3784287000016775,right,0,neutral
118,SS91,right,right,1,0.3553950000059558,right,1,valid
119,SS91,right,left,1,0.35299419998773374,right,0,invalid
120,SS91,none,left,0,0.8648647000081837,left,1,neutral
121,SS91,right,right,1,0.4173825000034413,right,1,valid
122,SS91,none,left,0,0.3594069000100717,left,1,neutral
123,SS91,none,right,1,0.3043831999966642,right,1,neutral
124,SS91,none,left,0,0.3991688999958569,left,1,neutral
125,SS91,right,right,1,0.39495159999933094,right,1,valid
126,SS91,none,left,0,0.3276023000071291,left,1,neutral
127,SS91,left,left,0,0.7072217999957502,left,1,valid
128,SS91,none,right,1,0.3337653000053251,right,1,neutral
129,SS91,left,left,0,0.7241232000087621,left,1,valid
130,SS91,none,left,1,0.31992939999327064,right,0,neutral
131,SS91,left,left,0,0.30941030000394676,left,1,valid
132,SS91,none,right,0,0.3030097000009846,left,0,neutral
133,SS91,left,right,0,0.4638326999993296,left,0,invalid
134,SS91,right,right,1,0.4427055999985896,right,1,valid
135,SS91,none,right,1,0.932124200000544,right,1,neutral
136,SS91,right,left,1,0.5824081000027945,right,0,invalid
137,SS91,left,left,0,0.3507106000033673,left,1,valid
138,SS91,right,left,1,0.2893062000075588,right,0,invalid
139,SS91,left,left,0,0.6631261000002269,left,1,valid
140,SS91,right,right,1,0.2921918000065489,right,1,valid
141,SS91,none,left,1,0.3245249000028707,right,0,neutral
142,SS91,none,right,0,0.3870353999955114,left,0,neutral
143,SS91,none,left,1,0.29518800000369083,right,0,neutral
144,SS91,none,right,1,0.4057573000027333,right,1,neutral
145,SS91,left,left,0,0.3957354000012856,left,1,valid
146,SS91,none,left,1,0.4323402000009082,right,0,neutral
147,SS91,right,right,1,0.385560800001258,right,1,valid
148,SS91,none,left,1,0.3898894000012661,right,0,neutral
149,SS91,left,right,0,0.3979782999958843,left,0,invalid
150,SS91,none,left,1,0.3361523999919882,right,0,neutral
151,SS91,left,left,0,0.35187490000680555,left,1,valid
152,SS91,left,left,0,0.4418303999991622,left,1,valid
153,SS91,none,right,1,0.33824189999722876,right,1,neutral
154,SS91,none,left,0,0.3554701999964891,left,1,neutral
155,SS91,left,left,0,0.6207087999937357,left,1,valid
156,SS91,right,right,1,0.39811870000266936,right,1,valid
157,SS91,none,left,1,0.6295430999889504,right,0,neutral
158,SS91,right,right,1,0.2762397000042256,right,1,valid
159,SS91,none,right,1,0.4665391000016825,right,1,neutral
0,VP1,none,left,1,1.0618570999940855,right,0,neutral
1,VP1,left,left,1,1.0096807000227273,right,0,valid
2,VP1,left,left,1,1.1535818999400362,right,0,valid
3,VP1,none,left,0,NA,left,1,neutral
4,VP1,none,left,1,1.1372344000265002,right,0,neutral
5,VP1,left,right,1,0.9681626999517904,right,1,invalid
6,VP1,none,left,0,1.1474206000566485,left,1,neutral
7,VP1,right,left,1,0.8974624000256881,right,0,invalid
8,VP1,left,left,0,1.1764825000427663,left,1,valid
9,VP1,right,right,1,0.8273097999626771,right,1,valid
10,VP1,none,left,1,1.095858299988322,right,0,neutral
11,VP1,none,right,1,0.953893900034018,right,1,neutral
12,VP1,left,left,0,1.2499623999465257,left,1,valid
13,VP1,none,left,0,NA,left,1,neutral
14,VP1,none,right,1,1.045293000061065,right,1,neutral
15,VP1,right,right,1,0.9617186000104994,right,1,valid
16,VP1,none,right,1,1.4596197999780998,right,1,neutral
17,VP1,none,right,0,1.0449420000659302,left,0,neutral
18,VP1,left,right,1,1.2853637000080198,right,1,invalid
19,VP1,none,left,0,0.8576049999101087,left,1,neutral
20,VP1,right,left,0,1.2286990999709817,left,1,invalid
21,VP1,right,left,1,1.282206799951382,right,0,invalid
22,VP1,none,left,0,1.0839066000189632,left,1,neutral
23,VP1,right,right,1,0.8031220999546349,right,1,valid
24,VP1,left,right,0,NA,left,0,invalid
25,VP1,right,right,1,0.9434410999529064,right,1,valid
26,VP1,left,left,0,0.660815899958834,left,1,valid
27,VP1,none,left,0,0.9527990000788122,left,1,neutral
28,VP1,left,right,1,0.7801693000365049,right,1,invalid
29,VP1,right,right,0,0.8792047000024468,left,0,valid
30,VP1,left,left,0,0.947859299951233,left,1,valid
31,VP1,right,right,1,0.7675737000536174,right,1,valid
32,VP1,none,left,0,0.8428106000646949,left,1,neutral
33,VP1,none,right,1,0.8762560000177473,right,1,neutral
34,VP1,none,left,0,0.7675182999810204,left,1,neutral
35,VP1,none,right,1,0.8265376000199467,right,1,neutral
36,VP1,none,right,0,0.9280908999498934,left,0,neutral
37,VP1,right,right,1,0.9738111000042408,right,1,valid
38,VP1,right,right,1,0.9794260000344366,right,1,valid
39,VP1,none,right,0,0.849994899937883,left,0,neutral
40,VP1,left,left,0,0.945997800095938,left,1,valid
41,VP1,right,right,1,0.9108042999869213,right,1,valid
42,VP1,none,right,0,1.0687794999685138,left,0,neutral
43,VP1,left,left,1,1.4459189999615774,right,0,valid
44,VP1,none,right,1,1.010873100021854,right,1,neutral
45,VP1,none,right,0,1.027083299937658,left,0,neutral
46,VP1,none,right,1,0.5277465999824926,right,1,neutral
47,VP1,left,left,0,0.9169324000831692,left,1,valid
48,VP1