cue,direction,practice_block_loop.thisRepN,practice_block_loop.thisTrialN,practice_block_loop.thisN,practice_block_loop.thisIndex,main_blocks_loop.thisRepN,main_blocks_loop.thisTrialN,main_blocks_loop.thisN,main_blocks_loop.thisIndex,static_isi.started,static_isi.stopped,fixation_pre.started,fixation_pre.stopped,image.started,image.stopped,fixation_post.started,fixation_post.stopped,dots_background.started,dots_background.stopped,dots_stimulus.started,dots_stimulus.stopped,dots_keyboard_response.keys,dots_keyboard_response.rt,dots_keyboard_response.started,dots_keyboard_response.stopped,feedback_text.started,feedback_text.stopped,instruction_main_text.started,instruction_main_text.stopped,instruction_main_keyboard_response.keys,instruction_main_keyboard_response.rt,instruction_main_keyboard_response.started,instruction_main_keyboard_response.stopped,Pseudonym,date,expName,psychopyVersion,frameRate,
right,right,0,0,0,1,,,,,0.010847439931239933,1.26084743993124,90.02148779999698,None,90.47220979997655,None,91.41090139996959,None,95.92774329998065,None,95.92774329998065,None,j,0.4522801000275649,95.92774329998065,None,96.44121279998217,None,,,,,,,rh,2022_Mar_02_1105,rdk-discrimination,2021.2.3,48.02919406844028,
none,right,0,1,1,5,,,,,0.016518380027264357,1.2665183800272644,98.17660639999667,None,99.41088270000182,None,100.41108130000066,None,105.41103030001977,None,105.41103030001977,None,f,0.5691139999544248,105.41103030001977,None,106.0166334999958,None,,,,,,,rh,2022_Mar_02_1105,rdk-discrimination,2021.2.3,48.02919406844028,
left,left,0,2,2,0,,,,,0.016777980024926364,1.2667779800249264,107.75912539998535,None,108.5986564999912,None,109.59881409996888,None,114.59870450000744,None,114.59870450000744,None,f,0.3246402000077069,114.59870450000744,None,114.95771669998066,None,,,,,,,rh,2022_Mar_02_1105,rdk-discrimination,2021.2.3,48.02919406844028,
right,left,0,3,3,3,,,,,0.0168733800528571,1.266873380052857,116.6974350999808,None,117.51472129998729,None,118.53604829998221,None,123.03605200001039,None,123.03605200001039,None,f,0.6773194999550469,123.03605200001039,None,123.74371670000255,None,,,,,,,rh,2022_Mar_02_1105,rdk-discrimination,2021.2.3,48.02919406844028,
none,left,0,4,4,4,,,,,0.016963580041192472,1.2669635800411925,125.46821770002134,None,125.82733399997232,None,126.84876039996743,None,130.26544149999972,None,130.26544149999972,None,f,0.6509349999832921,130.26544149999972,None,130.9533012000029,None,,,,,,,rh,2022_Mar_02_1105,rdk-discrimination,2021.2.3,48.02919406844028,
left,right,0,5,5,2,,,,,0.016961380024440587,1.2669613800244406,132.67682849999983,None,133.8904276000103,None,134.91097049997188,None,139.41171710001072,None,139.41171710001072,None,f,0.4773923000320792,139.41171710001072,None,139.9170090999687,None,,,,,,,rh,2022_Mar_02_1105,rdk-discrimination,2021.2.3,48.02919406844028,
,,,,,,,,,,,,,,,,,,,,,,,,,,,,140.4313946000184,None,space,9.236358800029848,140.4313946000184,None,rh,2022_Mar_02_1105,rdk-discrimination,2021.2.3,48.02919406844028,
right,right,,,,,0,0,0,22,0.007506940048187971,1.257506940048188,150.97837859997526,None,151.78880450001452,None,152.8073766999878,None,156.2240375999827,None,156.2240375999827,None,j,0.3731065000174567,156.2240375999827,None,156.62737210001796,None,,,,,,,rh,2022_Mar_02_1105,rdk-discrimination,2021.2.3,48.02919406844028,
none,right,,,,,0,1,1,73,0.01598607999039814,1.2659860799903981,158.36366869998164,None,158.47427930001868,None,159.49397489998955,None,163.99455270002363,None,163.99455270002363,None,j,0.583426600031089,163.99455270002363,None,164.599086000002,None,,,,,,,rh,2022_Mar_02_1105,rdk-discrimination,2021.2.3,48.02919406844028,
none,right,,,,,0,2,2,64,0.016662780020851642,1.2666627800208516,166.32319899997674,None,167.53566900000442,None,168.55736829998204,None,173.55700159998378,None,173.55700159998378,None,j,0.4822441000142135,173.55700159998378,None,174.07687779999105,None,,,,,,,rh,2022_Mar_02_1105,rdk-discrimination,2021.2.3,48.02919406844028,
none,right,,,,,0,3,3,62,0.016737779951654375,1.2667377799516544,175.80081549996976,None,175.91056589997606,None,176.931510000024,None,180.93200739996973,None,180.93200739996973,None,j,0.665333200013265,180.93200739996973,None,181.62027239997406,None,,,,,,,rh,2022_Mar_02_1105,rdk-discrimination,2021.2.3,48.02919406844028,
right,left,,,,,0,4,4,37,0.01674728002399206,1.266747280023992,183.36302310001338,None,183.47345459996723,None,184.4941153000109,None,188.4932567999931,None,188.4932567999931,None,f,0.6476420999970287,188.4932567999931,None,189.16165780002484,None,,,,,,,rh,2022_Mar_02_1105,rdk-discrimination,2021.2.3,48.02919406844028,
none,left,,,,,0,5,5,51,0.01692507998086512,1.2669250799808651,190.88508450001245,None,190.99366909998935,None,192.01488339999923,None,196.0155310999835,None,196.0155310999835,None,f,0.6643226000014693,196.0155310999835,None,196.70199430000503,None,,,,,,,rh,2022_Mar_02_1105,rdk-discrimination,2021.2.3,48.02919406844028,
right,left,,,,,0,6,6,36,0.01680658000987023,1.2668065800098702,198.42596449999837,None,198.78514140000334,None,199.80577659996925,None,203.22405040002195,None,203.22405040002195,None,f,0.8933633000124246,203.22405040002195,None,204.13913179998053,None,,,,,,,rh,2022_Mar_02_1105,rdk-discrimination,2021.2.3,48.02919406844028,
none,left,,,,,0,7,7,59,0.01671648002229631,1.2667164800222963,205.86581869999645,None,206.2231979999924,None,207.24422509997385,None,210.66111440001987,None,210.66111440001987,None,f,0.6347076999954879,210.66111440001987,None,211.32694180001272,None,,,,,,,rh,2022_Mar_02_1105,rdk-discrimination,2021.2.3,48.02919406844028,
right,left,,,,,0,8,8,39,0.01672398007940501,1.266723980079405,213.0516895999899,None,213.41337259998545,None,214.43255570001202,None,218.93213620001916,None,218.93213620001916,None,j,0.455571600003168,218.93213620001916,None,219.41002469998784,None,,,,,,,rh,2022_Mar_02_1105,rdk-discrimination,2021.2.3,48.02919406844028,
left,left,,,,,0,9,9,6,0.01652378001017496,1.266523780010175,221.13565429998562,None,221.26250599999912,None,222.2658280999749,None,226.76634560001548,None,226.76634560001548,None,f,0.5593493999913335,226.76634560001548,None,227.35748200002126,None,,,,,,,rh,2022_Mar_02_1105,rdk-discrimination,2021.2.3,48.02919406844028,
none,left,,,,,0,10,10,49,0.01675028004683554,1.2667502800468355,229.0930874000187,None,229.2023371999967,None,230.22368479997385,None,234.22384240000974,None,234.22384240000974,None,f,0.6064972999738529,234.22384240000974,None,234.8680950999842,None,,,,,,,rh,2022_Mar_02_1105,rdk-discrimination,2021.2.3,48.02919406844028,
left,left,,,,,0,11,11,15,0.01668378000613302,1.266683780006133,236.5926419000025,None,237.80700169998454,None,238.82871819997672,None,243.84898389998125,None,243.84898389998125,None,f,0.42573000001721084,243.84898389998125,None,244.30737789999694,None,,,,,,,rh,2022_Mar_02_1105,rdk-discrimination,2021.2.3,48.02919406844028,
none,right,,,,,0,12,12,75,0.01654298003995791,1.266542980039958,246.03013660002034,None,246.1396433999762,None,247.16094219998922,None,250.5790113999974,None,250.5790113999974,None,j,0.622725100023672,250.5790113999974,None,251.22486269997898,None,,,,,,,rh,2022_Mar_02_1105,rdk-discrimination,2021.2.3,48.02919406844028,
left,left,,,,,0,13,13,12,0.016333280014805496,1.2663332800148055,252.94778320001205,None,253.76533039996866,None,254.7860868999851,None,258.7863673000247,None,258.7863673000247,None,f,0.5313854000414722,258.7863673000247,None,259.34820690000197,None,,,,,,,rh,2022_Mar_02_1105,rdk-discrimination,2021.2.3,48.02919406844028,
none,right,,,,,0,14,14,61,0.01686727994820103,1.266867279948201,261.0723892999813,None,262.2864063999732,None,263.3072584000183,None,267.80742630001623,None,267.80742630001623,None,j,0.7079645000048913,267.80742630001623,None,268.5368645999697,None,,,,,,,rh,2022_Mar_02_1105,rdk-discrimination,2021.2.3,48.02919406844028,
right,right,,,,,0,15,15,18,0.016952879959717393,1.2669528799597174,270.2589439000003,None,270.371432200016,None,271.39096350001637,None,276.39064399997005,None,276.39064399997005,None,f,1.3053814999875613,276.39064399997005,None,277.73248230002355,None,,,,,,,rh,2022_Mar_02_1105,rdk-discrimination,2021.2.3,48.02919406844028,
none,right,,,,,0,16,16,60,0.01704698003595695,1.267046980035957,279.4671054999926,None,280.68145269999513,None,281.70302469999297,None,285.7034945000196,None,285.7034945000196,None,j,0.5753429000033066,285.7034945000196,None,286.3132273000083,None,,,,,,,rh,2022_Mar_02_1105,rdk-discrimination,2021.2.3,48.02919406844028,
none,left,,,,,0,17,17,44,0.016604679985903203,1.2666046799859032,288.051698700001,None,288.4106838000007,None,289.4321859999909,None,294.432382399973,None,294.432382399973,None,f,0.5263905000174418,294.432382399973,None,294.99371830001473,None,,,,,,,rh,2022_Mar_02_1105,rdk-discrimination,2021.2.3,48.02919406844028,
right,right,,,,,0,18,18,26,0.016721179999876767,1.2667211799998768,296.7170420999755,None,297.93490280001424,None,298.9533128999756,None,303.95231199997943,None,303.95231199997943,None,j,0.44561890000477433,303.95231199997943,None,304.43161329999566,None,,,,,,,rh,2022_Mar_02_1105,rdk-discrimination,2021.2.3,48.02919406844028,
none,left,,,,,0,19,19,56,0.016541280027013272,1.2665412800270133,306.1557176000206,None,306.97358569997596,None,307.99336020002374,None,311.9951221999945,None,311.9951221999945,None,f,0.461300199967809,311.9951221999945,None,312.49379480001517,None,,,,,,,rh,2022_Mar_02_1105,rdk-discrimination,2021.2.3,48.02919406844028,
right,right,,,,,0,20,20,17,0.017041679995600134,1.2670416799956001,314.21924579999177,None,314.3270269000204,None,315.3477044000174,None,319.8491138999816,None,319.8491138999816,None,j,0.3290591999539174,319.8491138999816,None,320.20299189997604,None,,,,,,,rh,2022_Mar_02_1105,rdk-discrimination,2021.2.3,48.02919406844028,
none,right,,,,,0,21,21,65,0.016689080046489835,1.2666890800464898,321.92674690001877,None,323.14010820002295,None,324.1614031000063,None,328.1624710999895,None,328.1624710999895,None,j,0.5950948999961838,328.1624710999895,None,328.78524330002256,None,,,,,,,rh,2022_Mar_02_1105,rdk-discrimination,2021.2.3,48.02919406844028,
none,left,,,,,0,22,22,57,0.016558579984121025,1.266558579984121,330.50995639996836,None,330.61893449997297,None,331.6400177999749,None,336.1407926999964,None,336.1407926999964,None,f,0.5338004999794066,336.1407926999964,None,336.7025943999761,None,,,,,,,rh,2022_Mar_02_1105,rdk-discrimination,2021.2.3,48.02919406844028,
left,left,,,,,0,23,23,2,0.01696357998298481,1.2669635799829848,338.42711280001095,None,339.24580719997175,None,340.26570970000466,None,344.78526269999566,None,344.78526269999566,None,None,,344.78526269999566,None,346.30958920001285,None,,,,,,,rh,2022_Mar_02_1105,rdk-discrimination,2021.2.3,48.02919406844028,
none,right,,,,,0,24,24,63,0.018751580035313964,1.268751580035314,348.0292059999774,None,348.13992450002115,None,349.16123660001904,None,353.16211309999926,None,353.16211309999926,None,j,0.6019108999753371,353.16211309999926,None,353.7925223999773,None,,,,,,,rh,2022_Mar_02_1105,rdk-discrimination,2021.2.3,48.02919406844028,
none,left,,,,,0,25,25,54,0.01597527996636927,1.2659752799663693,355.53262369998265,None,355.6399528000038,None,356.66148830001475,None,361.16212419996737,None,361.16212419996737,None,f,0.48681450000731274,361.16212419996737,None,361.68171580001945,None,,,,,,,rh,2022_Mar_02_1105,rdk-discrimination,2021.2.3,48.02919406844028,
none,left,,,,,0,26,26,58,0.016687580035068095,1.266687580035068,363.4066302999854,None,363.5154819000163,None,364.53694489999907,None,369.5368968999828,None,369.5368968999828,None,f,0.5562000999925658,369.5368968999828,None,370.11984840000514,None,,,,,,,rh,2022_Mar_02_1105,rdk-discrimination,2021.2.3,48.02919406844028,
none,right,,,,,0,27,27,74,0.01696218003053218,1.2669621800305322,371.8428368999739,None,371.95389050000813,None,372.9740722000133,None,377.4742110000225,None,377.4742110000225,None,f,0.4874001999851316,377.4742110000225,None,378.0002919000108,None,,,,,,,rh,2022_Mar_02_1105,rdk-discrimination,2021.2.3,48.02919406844028,
right,right,,,,,0,28,28,28,0.016893180029001087,1.266893180029001,379.7397751000244,None,380.9540638999897,None,381.9738728000084,None,385.974269600003,None,385.974269600003,None,j,0.2286059000180103,385.974269600003,None,386.2306511999923,None,,,,,,,rh,2022_Mar_02_1105,rdk-discrimination,2021.2.3,48.02919406844028,
right,right,,,,,0,29,29,23,0.016641680034808815,1.2666416800348088,387.9694388000062,None,388.7875625999877,None,389.807440900011,None,394.30763679998927,None,394.30763679998927,None,j,0.2736690999590792,394.30763679998927,None,394.61897309997585,None,,,,,,,rh,2022_Mar_02_1105,rdk-discrimination,2021.2.3,48.02919406844028,
left,left,,,,,0,30,30,8,0.016374579980038106,1.266374579980038,396.34452089999104,None,396.7032222999842,None,397.7241752999835,None,401.14143239997793,None,401.14143239997793,None,f,0.5050399000174366,401.14143239997793,None,401.6827347999788,None,,,,,,,rh,2022_Mar_02_1105,rdk-discrimination,2021.2.3,48.02919406844028,
right,right,,,,,0,31,31,24,0.016376579995267093,1.266376579995267,403.4058769000112,None,404.2253956000204,None,405.2450155999977,None,409.2464805999771,None,409.2464805999771,None,j,0.3238334999768995,409.2464805999771,None,409.6005623000092,None,,,,,,,rh,2022_Mar_02_1105,rdk-discrimination,2021.2.3,48.02919406844028,
left,right,,,,,0,32,32,33,0.016179380007088184,1.2661793800070882,411.34346319996985,None,412.16236620000564,None,413.1826579999761,None,418.1828343999805,None,418.1828343999805,None,f,0.29646759998286143,418.1828343999805,None,418.51568949996727,None,,,,,,,rh,2022_Mar_02_1105,rdk-discrimination,2021.2.3,48.02919406844028,
right,right,,,,,0,33,33,21,0.01696848007850349,1.2669684800785035,420.240009000001,None,420.3486505000037,None,421.36932960001286,None,425.37044470000546,None,425.37044470000546,None,j,0.30938299995614216,425.37044470000546,None,425.70263219997287,None,,,,,,,rh,2022_Mar_02_1105,rdk-discrimination,2021.2.3,48.02919406844028,
none,left,,,,,0,34,34,46,0.016733180033043027,1.266733180033043,427.4274437999702,None,427.5365546999965,None,428.55641020002076,None,431.97427389997756,None,431.97427389997756,None,f,0.5674687999999151,431.97427389997756,None,432.5778079999727,None,,,,,,,rh,2022_Mar_02_1105,rdk-discrimination,2021.2.3,48.02919406844028,
none,right,,,,,0,35,35,71,0.018142679997254163,1.2681426799972542,434.2986149999779,None,434.6610127000022,None,435.6825788000133,None,440.20354969997425,None,440.20354969997425,None,j,0.6220613000332378,440.20354969997425,None,440.8502326000016,None,,,,,,,rh,2022_Mar_02_1105,rdk-discrimination,2021.2.3,48.02919406844028,
none,right,,,,,0,36,36,67,0.016927079996094108,1.266927079996094,442.5928244999959,None,442.7030152999796,None,443.72507159999805,None,447.7471627999912,None,447.7471627999912,None,f,0.438879499968607,447.7471627999912,None,448.2295378000126,None,,,,,,,rh,2022_Mar_02_1105,rdk-discrimination,2021.2.3,48.02919406844028,
left,right,,,,,0,37,37,34,0.016783880011644214,1.2667838800116442,449.9690609999816,None,451.18224260001443,None,452.20350389997475,None,456.70354939997196,None,456.70354939997196,None,f,0.39135849999729544,456.70354939997196,None,457.1200815999764,None,,,,,,,rh,2022_Mar_02_1105,rdk-discrimination,2021.2.3,48.02919406844028,
none,right,,,,,0,38,38,77,0.01788868010044098,1.267888680100441,458.84235410002293,None,459.66133410000475,None,460.68254239996895,None,465.68288909998955,None,465.68288909998955,None,j,0.4747530000167899,465.68288909998955,None,466.1868653999991,None,,,,,,,rh,2022_Mar_02_1105,rdk-discrimination,2021.2.3,48.02919406844028,
left,left,,,,,0,39,39,5,0.01719938003225252,1.2671993800322525,467.9268794999807,None,469.14248069998575,None,470.1617922000005,None,475.1604058999801,None,475.1604058999801,None,f,0.5794714000076056,475.1604058999801,None,475.76519930001814,None,,,,,,,rh,2022_Mar_02_1105,rdk-discrimination,2021.2.3,48.02919406844028,
none,right,,,,,0,40,40,72,0.016725680034141988,1.266725680034142,477.4889855000074,None,477.5994566999725,None,478.6201003000024,None,482.6201932000113,None,482.6201932000113,None,j,0.6384823000407778,482.6201932000113,None,483.28626580000855,None,,,,,,,rh,2022_Mar_02_1105,rdk-discrimination,2021.2.3,48.02919406844028,
left,left,,,,,0,41,41,0,0.016612979990895838,1.2666129799908958,485.01041849999456,None,485.12205710000126,None,486.141018699971,None,489.5580217000097,None,489.5580217000097,None,j,0.6041274999734014,489.5580217000097,None,490.1862475000089,None,,,,,,,rh,2022_Mar_02_1105,rdk-discrimination,2021.2.3,48.02919406844028,
none,left,,,,,0,42,42,53,0.016724380024243146,1.2667243800242431,491.92702150001423,None,492.0375599999679,None,493.0579421999864,None,496.4743759999983,None,496.4743759999983,None,f,0.4715139999752864,496.4743759999983,None,496.9775549999904,None,,,,,,,rh,2022_Mar_02_1105,rdk-discrimination,2021.2.3,48.02919406844028,
none,left,,,,,0,43,43,48,0.01644358003977686,1.2664435800397769,498.71912550000707,None,499.0786086000153,None,500.09923849999905,None,503.51635579997674,None,503.51635579997674,None,f,0.450611200009007,503.51635579997674,None,503.99642679997487,None,,,,,,,rh,2022_Mar_02_1105,rdk-discrimination,2021.2.3,48.02919406844028,
left,left,,,,,0,44,44,9,0.01618018001317978,1.2661801800131798,505.7205679999897,None,505.8286485999706,None,506.8493946000235,None,511.84975779999513,None,511.84975779999513,None,f,0.5277218999690376,511.84975779999513,None,512.4111844999716,None,,,,,,,rh,2022_Mar_02_1105,rdk-discrimination,2021.2.3,48.02919406844028,
left,left,,,,,0,45,45,3,0.016779280034825206,1.2667792800348252,514.1349572999752,None,515.3511759000248,None,516.3702616000082,None,519.7868573999731,None,519.7868573999731,None,f,0.6003137999796309,519.7868573999731,None,520.4108594999998,None,,,,,,,rh,2022_Mar_02_1105,rdk-discrimination,2021.2.3,48.02919406844028,
right,right,,,,,0,46,46,20,0.016596679983194917,1.266596679983195,522.1367699999828,None,522.496886399982,None,523.5165747000137,None,526.9328942999709,None,526.9328942999709,None,j,0.4728250000043772,526.9328942999709,None,527.434075600002,None,,,,,,,rh,2022_Mar_02_1105,rdk-discrimination,2021.2.3,48.02919406844028,
right,left,,,,,0,47,47,38,0.01594148005824536,1.2659414800582454,529.1789546000073,None,530.39260620001,None,531.4128364999779,None,535.9121086000232,None,535.9121086000232,None,j,0.38658079999731854,535.9121086000232,None,536.3347985,None,,,,,,,rh,2022_Mar_02_1105,rdk-discrimination,2021.2.3,48.02919406844028,
right,right,,,,,0,48,48,29,0.01654618000611663,1.2665461800061166,538.0726082000183,None,539.2889642000082,None,540.3078126999899,None,544.8079777000239,None,544.8079777000239,None,j,0.20686450001085177,544.8079777000239,None,545.0414968999685,None,,,,,,,rh,2022_Mar_02_1105,rdk-discrimination,2021.2.3,48.02919406844028,
left,left,,,,,0,49,49,14,0.016447080008219928,1.26644708000822,546.7824669000111,None,546.8898471000139,None,547.9128543999977,None,552.4130245000124,None,552.4130245000124,None,j,0.5394528000033461,552.4130245000124,None,552.9800586000201,None,,,,,,,rh,2022_Mar_02_1105,rdk-discrimination,2021.2.3,48.02919406844028,
none,right,,,,,0,50,50,66,0.016417580016423017,1.266417580016423,554.718747499981,None,554.828602100024,None,555.8496321999701,None,560.8496401999728,None,560.8496401999728,None,j,0.5944767000037245,560.8496401999728,None,561.479676500021,None,,,,,,,rh,2022_Mar_02_1105,rdk-discrimination,2021.2.3,48.02919406844028,
left,left,,,,,0,51,51,4,0.016738180012907833,1.2667381800129078,563.2184291000012,None,564.039720300003,None,565.0539190999698,None,569.057043400011,None,569.057043400011,None,f,0.36779370001750067,569.057043400011,None,569.4527093999786,None,,,,,,,rh,2022_Mar_02_1105,rdk-discrimination,2021.2.3,48.02919406844028,
left,left,,,,,0,52,52,1,0.01658738002879545,1.2665873800287955,571.1777366999886,None,571.5370856000227,None,572.5579324999708,None,575.9748480999842,None,575.9748480999842,None,f,0.5707804000121541,575.9748480999842,None,576.5778513000114,None,,,,,,,rh,2022_Mar_02_1105,rdk-discrimination,2021.2.3,48.02919406844028,
none,left,,,,,0,53,53,45,0.01702028000727296,1.267020280007273,578.3021822000155,None,579.1205327999778,None,580.142381099984,None,583.5579430999933,None,583.5579430999933,None,f,0.7308174999780022,583.5579430999933,None,584.3284425999736,None,,,,,,,rh,2022_Mar_02_1105,rdk-discrimination,2021.2.3,48.02919406844028,
none,right,,,,,0,54,54,78,0.017084680031985044,1.267084680031985,586.0517652999843,None,587.2663743000012,None,588.2869303000043,None,592.2872215000098,None,592.2872215000098,None,j,0.4889507000334561,592.2872215000098,None,592.807930800016,None,,,,,,,rh,2022_Mar_02_1105,rdk-discrimination,2021.2.3,48.02919406844028,
none,right,,,,,0,55,55,70,0.016412980039604008,1.266412980039604,594.5313125000102,None,595.3490217999788,None,596.3705713999807,None,599.787471299991,None,599.787471299991,None,j,0.5331830999930389,599.787471299991,None,600.3487320999848,None,,,,,,,rh,2022_Mar_02_1105,rdk-discrimination,2021.2.3,48.02919406844028,
none,right,,,,,0,56,56,76,0.016533679969143122,1.2665336799691431,602.0725890999893,None,602.4321081999806,None,603.4534799000248,None,606.8703970999923,None,606.8703970999923,None,j,0.4662343999953009,606.8703970999923,None,607.369403299992,None,,,,,,,rh,2022_Mar_02_1105,rdk-discrimination,2021.2.3,48.02919406844028,
none,left,,,,,0,57,57,47,0.016536080045625567,1.2665360800456256,609.0936944999848,None,609.9113264000043,None,610.9329237000202,None,614.3498430000036,None,614.3498430000036,None,j,0.3884272999712266,614.3498430000036,None,614.7725898000062,None,,,,,,,rh,2022_Mar_02_1105,rdk-discrimination,2021.2.3,48.02919406844028,
right,right,,,,,0,58,58,19,0.017141080053988844,1.2671410800539888,616.5115269999951,None,617.330455599993,None,618.3495844000136,None,623.3498122000019,None,623.3498122000019,None,j,0.3226615999592468,623.3498122000019,None,623.7028055000119,None,,,,,,,rh,2022_Mar_02_1105,rdk-discrimination,2021.2.3,48.02919406844028,
left,left,,,,,0,59,59,10,0.01673398003913462,1.2667339800391346,625.4272977000219,None,625.7859607000137,None,626.8068652999937,None,631.8076472000103,None,631.8076472000103,None,f,0.4091556000057608,631.8076472000103,None,632.2452051999862,None,,,,,,,rh,2022_Mar_02_1105,rdk-discrimination,2021.2.3,48.02919406844028,
none,right,,,,,0,60,60,69,0.016663780028466135,1.2666637800284661,633.969828900008,None,634.0784799000248,None,635.0996955999872,None,639.0998073000228,None,639.0998073000228,None,f,0.5326249999925494,639.0998073000228,None,639.6687101999996,None,,,,,,,rh,2022_Mar_02_1105,rdk-discrimination,2021.2.3,48.02919406844028,
none,right,,,,,0,61,61,79,0.01798918005079031,1.2679891800507903,641.4045708000194,None,641.5159034000244,None,642.5368006000062,None,645.9538658999954,None,645.9538658999954,None,j,0.5022050999687053,645.9538658999954,None,646.5005373000167,None,,,,,,,rh,2022_Mar_02_1105,rdk-discrimination,2021.2.3,48.02919406844028,
none,left,,,,,0,62,62,42,0.01672698004404083,1.2667269800440408,648.2406383000198,None,649.4526260999846,None,650.473536400008,None,653.8914904000121,None,653.8914904000121,None,j,0.428580499952659,653.8914904000121,None,654.3518674999941,None,,,,,,,rh,2022_Mar_02_1105,rdk-discrimination,2021.2.3,48.02919406844028,
right,right,,,,,0,63,63,31,0.016739680024329573,1.2667396800243296,656.0943680999917,None,656.9121553999721,None,657.9326896999846,None,662.4332249999861,None,662.4332249999861,None,j,0.6679710999596864,662.4332249999861,None,663.1243515000097,None,,,,,,,rh,2022_Mar_02_1105,rdk-discrimination,2021.2.3,48.02919406844028,
right,right,,,,,0,64,64,16,0.01647508004680276,1.2664750800468028,664.8652297999943,None,665.2260139000136,None,666.2457356000086,None,670.7457415999961,None,670.7457415999961,None,j,0.3896451999899,670.7457415999961,None,671.1615043000202,None,,,,,,,rh,2022_Mar_02_1105,rdk-discrimination,2021.2.3,48.02919406844028,
none,left,,,,,0,65,65,40,0.01701568003045395,1.267015680030454,672.8857289999723,None,673.703774499998,None,674.7247443000088,None,679.7454129999969,None,679.7454129999969,None,f,0.5038413999718614,679.7454129999969,None,680.2865415000124,None,,,,,,,rh,2022_Mar_02_1105,rdk-discrimination,2021.2.3,48.02919406844028,
left,right,,,,,0,66,66,35,0.016965779999736696,1.2669657799997367,682.0103898000089,None,682.8300722999847,None,683.850245699985,None,688.8497922000242,None,688.8497922000242,None,f,0.2962273000157438,688.8497922000242,None,689.1894902000204,None,,,,,,,rh,2022_Mar_02_1105,rdk-discrimination,2021.2.3,48.02919406844028,
none,right,,,,,0,67,67,68,0.018117579980753362,1.2681175799807534,690.9257134000072,None,691.2877751999767,None,692.3082887000055,None,695.7251810000162,None,695.7251810000162,None,j,0.5153323000413366,695.7251810000162,None,696.2718684999854,None,,,,,,,rh,2022_Mar_02_1105,rdk-discrimination,2021.2.3,48.02919406844028,
right,right,,,,,0,68,68,30,0.01714917999925092,1.267149179999251,698.0105067999684,None,698.3735142999794,None,699.3918729000143,None,702.8082554999855,None,702.8082554999855,None,j,0.3278662000084296,702.8082554999855,None,703.1632461000117,None,,,,,,,rh,2022_Mar_02_1105,rdk-discrimination,2021.2.3,48.02919406844028,
left,left,,,,,0,69,69,13,0.01668078009970486,1.2666807800997049,704.8861977999914,None,704.9956033999915,None,706.01667490002,None,710.5157384999911,None,710.5157384999911,None,f,0.307011800003238,710.5157384999911,None,710.8501516999677,None,,,,,,,rh,2022_Mar_02_1105,rdk-discrimination,2021.2.3,48.02919406844028,
left,left,,,,,0,70,70,7,0.017636180040426552,1.2676361800404266,712.5917912999867,None,713.4111839999678,None,714.4317301000119,None,719.4336699999985,None,719.4336699999985,None,f,0.4452212000032887,719.4336699999985,None,719.913208700018,None,,,,,,,rh,2022_Mar_02_1105,rdk-discrimination,2021.2.3,48.02919406844028,
right,right,,,,,0,71,71,27,0.016645680007059127,1.2666456800070591,721.6564463999821,None,722.4766950000194,None,723.4962774000014,None,728.4958532999735,None,728.4958532999735,None,j,0.4522725000279024,728.4958532999735,None,728.9742559000151,None,,,,,,,rh,2022_Mar_02_1105,rdk-discrimination,2021.2.3,48.02919406844028,
none,left,,,,,0,72,72,50,0.01698318001581356,1.2669831800158136,730.6988369000028,None,730.8074498000205,None,731.8292202000157,None,735.8483225000091,None,735.8483225000091,None,f,0.4543825999717228,735.8483225000091,None,736.3283663999755,None,,,,,,,rh,2022_Mar_02_1105,rdk-discrimination,2021.2.3,48.02919406844028,
none,left,,,,,0,73,73,41,0.016612280043773353,1.2666122800437734,738.0528143999982,None,738.4119403000223,None,739.4332184999948,None,742.8497940999805,None,742.8497940999805,None,f,0.515398399962578,742.8497940999805,None,743.393157500017,None,,,,,,,rh,2022_Mar_02_1105,rdk-discrimination,2021.2.3,48.02919406844028,
none,left,,,,,0,74,74,43,0.016994280042126775,1.2669942800421268,745.1355161999818,None,745.4954006000189,None,746.5171310000005,None,751.0165589000098,None,751.0165589000098,None,f,0.4841556000174023,751.0165589000098,None,751.5361768999719,None,,,,,,,rh,2022_Mar_02_1105,rdk-discrimination,2021.2.3,48.02919406844028,
none,left,,,,,0,75,75,52,0.016943980008363724,1.2669439800083637,753.2611976999906,None,753.6194523000158,None,754.6402964000008,None,758.0585188000114,None,758.0585188000114,None,j,0.7184113000403158,758.0585188000114,None,758.8070763999713,None,,,,,,,rh,2022_Mar_02_1105,rdk-discrimination,2021.2.3,48.02919406844028,
left,left,,,,,0,76,76,11,0.01650908001465723,1.2665090800146572,760.5321278999909,None,761.3499419,None,762.370913300023,None,766.3709934999933,None,766.3709934999933,None,f,0.38402419997146353,766.3709934999933,None,766.7916565000196,None,,,,,,,rh,2022_Mar_02_1105,rdk-discrimination,2021.2.3,48.02919406844028,
none,left,,,,,0,77,77,55,0.016221980040427297,1.2662219800404273,768.5317990999902,None,768.6412589999964,None,769.6621245999704,None,773.6648124000058,None,773.6648124000058,None,f,0.4997311999904923,773.6648124000058,None,774.2032993999892,None,,,,,,,rh,2022_Mar_02_1105,rdk-discrimination,2021.2.3,48.02919406844028,
right,right,,,,,0,78,78,25,0.016756780038122088,1.266756780038122,775.9272538999794,None,776.2863588000182,None,777.3071293999674,None,780.7253334000125,None,780.7253334000125,None,j,0.8334563000244088,780.7253334000125,None,781.5805777999922,None,,,,,,,rh,2022_Mar_02_1105,rdk-discrimination,2021.2.3,48.02919406844028,
left,right,,,,,0,79,79,32,0.01655017997836694,1.266550179978367,783.323874499998,None,784.1418260000064,None,785.1626506000175,None,790.1645024999743,None,790.1645024999743,None,f,0.4174724000040442,790.1645024999743,None,790.6229928000248,None,,,,,,,rh,2022_Mar_02_1105,rdk-discrimination,2021.2.3,48.02919406844028,
left,left,,,,,1,0,80,2,0.01581708004232496,1.265817080042325,792.3665348999784,None,792.7273276000051,None,793.7459513000213,None,797.7459445999702,None,797.7459445999702,None,f,0.6108124000020325,797.7459445999702,None,798.396050899988,None,,,,,,,rh,2022_Mar_02_1105,rdk-discrimination,2021.2.3,48.02919406844028,
right,right,,,,,1,1,81,25,0.017017879988998175,1.2670178799889982,800.1345533999847,None,800.2457496999996,None,801.2663774000248,None,806.2670958000235,None,806.2670958000235,None,j,0.2731527999858372,806.2670958000235,None,806.57910610002,None,,,,,,,rh,2022_Mar_02_1105,rdk-discrimination,2021.2.3,48.02919406844028,
none,right,,,,,1,2,82,61,0.01690778002375737,1.2669077800237574,808.3025110000162,None,809.120909499994,None,810.1422088000108,None,815.1417577000102,None,815.1417577000102,None,f,0.5667186999926344,815.1417577000102,None,815.7496686999802,None,,,,,,,rh,2022_Mar_02_1105,rdk-discrimination,2021.2.3,48.02919406844028,
right,right,,,,,1,3,83,24,0.016998779959976673,1.2669987799599767,817.4899083999917,None,817.6015018000035,None,818.6206260999897,None,822.037671500002,None,822.037671500002,None,j,0.722135599993635,822.037671500002,None,822.7924354000133,None,,,,,,,rh,2022_Mar_02_1105,rdk-discrimination,2021.2.3,48.02919406844028,
right,right,,,,,1,4,84,23,0.016883680073078722,1.2668836800730787,824.532122500008,None,825.3514516999712,None,826.3701205999823,None,830.3716129999957,None,830.3716129999957,None,j,0.54296529997373,830.3716129999957,None,830.9529676000238,None,,,,,,,rh,2022_Mar_02_1105,rdk-discrimination,2021.2.3,48.02919406844028,
none,right,,,,,1,5,85,73,0.017025679990183562,1.2670256799901836,832.6779895999935,None,832.7870174999698,None,833.8086109000142,None,838.3086804000195,None,838.3086804000195,None,j,0.5356166000128724,838.3086804000195,None,838.8705314999679,None,,,,,,,rh,2022_Mar_02_1105,rdk-discrimination,2021.2.3,48.02919406844028,
none,left,,,,,1,6,86,42,0.016932979982811958,1.266932979982812,840.5949780999799,None,841.4121438000002,None,842.4336728000198,None,845.8505782000138,None,845.8505782000138,None,j,0.4790678000426851,845.8505782000138,None,846.3574816000182,None,,,,,,,rh,2022_Mar_02_1105,rdk-discrimination,2021.2.3,48.02919406844028,
left,left,,,,,1,7,87,10,0.016891380015295,1.266891380015295,848.0950305999722,None,849.3084957000101,None,850.3294652000186,None,855.3302266999963,None,855.3302266999963,None,f,0.29432560002896935,855.3302266999963,None,855.6667182000238,None,,,,,,,rh,2022_Mar_02_1105,rdk-discrimination,2021.2.3,48.02919406844028,
right,right,,,,,1,8,88,30,0.0162526800413616,1.2662526800413616,857.4072705999715,None,857.7659369999892,None,858.7865290999762,None,863.7878613999928,None,863.7878613999928,None,j,0.5435877000563778,863.7878613999928,None,864.3700990999932,None,,,,,,,rh,2022_Mar_02_1105,rdk-discrimination,2021.2.3,48.02919406844028,
left,left,,,,,1,9,89,5,0.016872979991603643,1.2668729799916036,866.0941234999918,None,867.3094571999973,None,868.3291770999786,None,871.7466051999945,None,871.7466051999945,None,f,0.5133062999811955,871.7466051999945,None,872.2868802999728,None,,,,,,,rh,2022_Mar_02_1105,rdk-discrimination,2021.2.3,48.02919406844028,
right,left,,,,,1,10,90,38,0.01685868005733937,1.2668586800573394,874.0113466000184,None,875.2253795000142,None,876.2463017000118,None,880.2461633000057,None,880.2461633000057,None,j,0.3941056999610737,880.2461633000057,None,880.6680660999846,None,,,,,,,rh,2022_Mar_02_1105,rdk-discrimination,2021.2.3,48.02919406844028,
right,right,,,,,1,11,91,27,0.016718280036002398,1.2667182800360024,882.4071055999957,None,882.7848121999996,None,883.78789159999,None,888.7879873000202,None,888.7879873000202,None,j,0.270574200025294,888.7879873000202,None,889.0849809999927,None,,,,,,,rh,2022_Mar_02_1105,rdk-discrimination,2021.2.3,48.02919406844028,
left,left,,,,,1,12,92,14,0.01695188001031056,1.2669518800103106,890.8235504999757,None,892.0399134000181,None,893.0585332000046,None,896.4754564000177,None,896.4754564000177,None,f,0.6270706999930553,896.4754564000177,None,897.1412830000045,None,,,,,,,rh,2022_Mar_02_1105,rdk-discrimination,2021.2.3,48.02919406844028,
none,right,,,,,1,13,93,65,0.016854680026881397,1.2668546800268814,898.8659291000222,None,899.2249349000049,None,900.2466263999813,None,905.2675215000054,None,905.2675215000054,None,j,0.4044704000116326,905.2675215000054,None,905.70395190001,None,,,,,,,rh,2022_Mar_02_1105,rdk-discrimination,2021.2.3,48.02919406844028,
none,right,,,,,1,14,94,75,0.0170466800336726,1.2670466800336726,907.4276282999781,None,908.642784799973,None,909.6634341999888,None,914.6634938999778,None,914.6634938999778,None,f,0.4175952000077814,914.6634938999778,None,915.1280757000204,None,,,,,,,rh,2022_Mar_02_1105,rdk-discrimination,2021.2.3,48.02919406844028,
none,right,,,,,1,15,95,74,0.016924079973250628,1.2669240799732506,916.8659878000035,None,917.2269736999879,None,918.2461454999866,None,922.246367099986,None,922.246367099986,None,j,0.4498499999754131,922.246367099986,None,922.7243430999806,None,,,,,,,rh,2022_Mar_02_1105,rdk-discrimination,2021.2.3,48.02919406844028,
none,left,,,,,1,16,96,58,0.01700377999804914,1.2670037799980491,924.4484241000027,None,925.6638061999693,None,926.6837329000118,None,931.1835640000063,None,931.1835640000063,None,f,0.48570749995997176,931.1835640000063,None,931.7034113999689,None,,,,,,,rh,2022_Mar_02_1105,rdk-discrimination,2021.2.3,48.02919406844028,
left,left,,,,,1,17,97,9,0.0177533800015226,1.2677533800015226,933.4255164000206,None,933.7878633000073,None,934.8088255000184,None,938.8089202999836,None,938.8089202999836,None,f,0.3871155999950133,938.8089202999836,None,939.2243029000238,None,,,,,,,rh,2022_Mar_02_1105,rdk-discrimination,2021.2.3,48.02919406844028,
none,right,,,,,1,18,98,78,0.016660880006384104,1.266660880006384,940.9494297999772,None,941.3075219999882,None,942.3283432999742,None,946.3295047999709,None,946.3295047999709,None,j,0.45870179997291416,946.3295047999709,None,946.8079071000102,None,,,,,,,rh,2022_Mar_02_1105,rdk-discrimination,2021.2.3,48.02919406844028,
none,left,,,,,1,19,99,54,0.017053580028004944,1.267053580028005,948.5328724000137,None,949.7459049000172,None,950.7670207999763,None,954.7663518000045,None,954.7663518000045,None,j,0.3953437000163831,954.7663518000045,None,955.1876167000155,None,,,,,,,rh,2022_Mar_02_1105,rdk-discrimination,2021.2.3,48.02919406844028,
right,right,,,,,1,20,100,26,0.016746580018661916,1.266746580018662,956.926884400018,None,957.7486243000021,None,958.7671683999943,None,962.1843461000244,None,962.1843461000244,None,j,0.39056530001107603,962.1843461000244,None,962.606136700022,None,,,,,,,rh,2022_Mar_02_1105,rdk-discrimination,2021.2.3,48.02919406844028,
right,right,,,,,1,21,101,29,0.01694448007037863,1.2669444800703786,964.3442486000131,None,964.7045166000025,None,965.7256581999827,None,970.2458477999899,None,970.2458477999899,None,j,0.29107269999803975,970.2458477999899,None,970.5591985000065,None,,,,,,,rh,2022_Mar_02_1105,rdk-discrimination,2021.2.3,48.02919406844028,
left,left,,,,,1,22,102,15,0.01665987999876961,1.2666598799987696,972.2825363000156,None,972.6428319999832,None,973.6623504000017,None,977.079076999973,None,977.079076999973,None,f,0.3658860999858007,977.079076999973,None,977.4743925000075,None,,,,,,,rh,2022_Mar_02_1105,rdk-discrimination,2021.2.3,48.02919406844028,
none,left,,,,,1,23,103,41,0.016997080005239695,1.2669970800052397,979.1989482999779,None,979.30829060002,None,980.3299138000002,None,984.328866900003,None,984.328866900003,None,j,0.6110594000201672,984.328866900003,None,984.9807168999687,None,,,,,,,rh,2022_Mar_02_1105,rdk-discrimination,2021.2.3,48.02919406844028,
left,left,,,,,1,24,104,1,0.016669280012138188,1.2666692800121382,986.7200250999886,None,987.9356200000038,None,988.954793300014,None,992.3712777000037,None,992.3712777000037,None,f,0.34611430001677945,992.3712777000037,None,992.7512572999694,None,,,,,,,rh,2022_Mar_02_1105,rdk-discrimination,2021.2.3,48.02919406844028,
none,left,,,,,1,25,105,59,0.016828179999720305,1.2668281799997203,994.4902943000197,None,994.599933999998,None,995.6210138999741,None,1000.1201226999983,None,1000.1201226999983,None,f,0.4488525000051595,1000.1201226999983,None,1000.6000585000147,None,,,,,,,rh,2022_Mar_02_1105,rdk-discrimination,2021.2.3,48.02919406844028,
right,right,,,,,1,26,106,28,0.01721578004071489,1.267215780040715,1002.3237653999822,None,1002.6839147999999,None,1003.7044959000195,None,1007.7052717999904,None,1007.7052717999904,None,j,0.2652676999568939,1007.7052717999904,None,1007.9972388999886,None,,,,,,,rh,2022_Mar_02_1105,rdk-discrimination,2021.2.3,48.02919406844028,
none,right,,,,,1,27,107,66,0.016641880036331713,1.2666418800363317,1009.7405407999759,None,1010.9544970999705,None,1011.9760290000122,None,1015.9764050000231,None,1015.9764050000231,None,j,0.47101020003901795,1015.9764050000231,None,1016.4753513999749,None,,,,,,,rh,2022_Mar_02_1105,rdk-discrimination,2021.2.3,48.02919406844028,
none,right,,,,,1,28,108,79,0.016532180074136704,1.2665321800741367,1018.198632500018,None,1018.3088065999909,None,1019.3300650999881,None,1023.8497586000012,None,1023.8497586000012,None,j,0.8138944000238553,1023.8497586000012,None,1024.6830144000123,None,,,,,,,rh,2022_Mar_02_1105,rdk-discrimination,2021.2.3,48.02919406844028,
left,left,,,,,1,29,109,8,0.01703648007242009,1.26703648007242,1026.4067043999676,None,1026.5172066999949,None,1027.5377466999926,None,1030.9552747000125,None,1030.9552747000125,None,f,0.41814419999718666,1030.9552747000125,None,1031.4122103999835,None,,,,,,,rh,2022_Mar_02_1105,rdk-discrimination,2021.2.3,48.02919406844028,
none,right,,,,,1,30,110,68,0.0168094799737446,1.2668094799737446,1033.1371534999926,None,1033.9543655000161,None,1034.9758783999714,None,1038.9769163000165,None,1038.9769163000165,None,j,0.4847610000288114,1038.9769163000165,None,1039.496650199988,None,,,,,,,rh,2022_Mar_02_1105,rdk-discrimination,2021.2.3,48.02919406844028,
none,left,,,,,1,31,111,40,0.017022180021740496,1.2670221800217405,1041.2207258999697,None,1041.5795797000173,None,1042.6011559999897,None,1047.600821400003,None,1047.600821400003,None,f,0.46497919998364523,1047.600821400003,None,1048.1012609999743,None,,,,,,,rh,2022_Mar_02_1105,rdk-discrimination,2021.2.3,48.02919406844028,
none,right,,,,,1,32,112,70,0.01683618000242859,1.2668361800024286,1049.8453638000065,None,1050.6619649999775,None,1051.6829185999813,None,1055.6841996000148,None,1055.6841996000148,None,j,0.6033956000464968,1055.6841996000148,None,1056.3083263000008,None,,,,,,,rh,2022_Mar_02_1105,rdk-discrimination,2021.2.3,48.02919406844028,
none,left,,,,,1,33,113,57,0.018210380047094077,1.268210380047094,1058.030344699975,None,1058.1416264,None,1059.1630560000194,None,1064.1634720999864,None,1064.1634720999864,None,f,0.4098050000029616,1064.1634720999864,None,1064.60068709997,None,,,,,,,rh,2022_Mar_02_1105,rdk-discrimination,2021.2.3,48.02919406844028,
none,right,,,,,1,34,114,69,0.016277279995847493,1.2662772799958475,1066.3449301000219,None,1066.4541537999758,None,1067.4758724999847,None,1071.9759132000036,None,1071.9759132000036,None,j,0.4851675999816507,1071.9759132000036,None,1072.4959498000098,None,,,,,,,rh,2022_Mar_02_1105,rdk-discrimination,2021.2.3,48.02919406844028,
right,right,,,,,1,35,115,22,0.016965179995168,1.266965179995168,1074.2199039999978,None,1075.4341947999783,None,1076.4538990000146,None,1081.4550586999976,None,1081.4550586999976,None,j,0.27324379998026416,1081.4550586999976,None,1081.766494599986,None,,,,,,,rh,2022_Mar_02_1105,rdk-discrimination,2021.2.3,48.02919406844028,
right,right,,,,,1,36,116,20,0.016825579979922622,1.2668255799799226,1083.4909581000102,None,1083.6008984000073,None,1084.621656399977,None,1088.622126000002,None,1088.622126000002,None,j,0.37487649999093264,1088.622126000002,None,1089.0167978000245,None,,,,,,,rh,2022_Mar_02_1105,rdk-discrimination,2021.2.3,48.02919406844028,
none,left,,,,,1,37,117,44,0.01677688001655042,1.2667768800165504,1090.7411880000145,None,1091.9542706999928,None,1092.9757959999843,None,1096.9762017999892,None,1096.9762017999892,None,j,0.36166679998859763,1096.9762017999892,None,1097.3786681999918,None,,,,,,,rh,2022_Mar_02_1105,rdk-discrimination,2021.2.3,48.02919406844028,
right,right,,,,,1,38,118,19,0.016722980013582855,1.2667229800135829,1099.1155882999883,None,1099.2270382000133,None,1100.2461480000056,None,1104.7467283000005,None,1104.7467283000005,None,j,0.35698989999946207,1104.7467283000005,None,1105.1412696000189,None,,,,,,,rh,2022_Mar_02_1105,rdk-discrimination,2021.2.3,48.02919406844028,
left,right,,,,,1,39,119,32,0.016260379983577877,1.2662603799835779,1106.8667468000203,None,1106.9757457000087,None,1107.997131799988,None,1111.413387699984,None,1111.413387699984,None,f,0.3739722999744117,1111.413387699984,None,1111.816161499999,None,,,,,,,rh,2022_Mar_02_1105,rdk-discrimination,2021.2.3,48.02919406844028,
none,left,,,,,1,40,120,55,0.01617428002646193,1.266174280026462,1113.5549693999928,None,1113.9128096000059,None,1114.9338724999689,None,1118.3510302000213,None,1118.3510302000213,None,f,0.4356219000183046,1118.3510302000213,None,1118.8144317999831,None,,,,,,,rh,2022_Mar_02_1105,rdk-discrimination,2021.2.3,48.02919406844028,
none,left,,,,,1,41,121,49,0.016388479969464242,1.2663884799694642,1120.5537458999897,None,1120.9126511000213,None,1121.9338378999964,None,1126.4343713999842,None,1126.4343713999842,None,j,0.4891638999688439,1126.4343713999842,None,1126.9537511999952,None,,,,,,,rh,2022_Mar_02_1105,rdk-discrimination,2021.2.3,48.02919406844028,
left,right,,,,,1,42,122,34,0.016697580053005368,1.2666975800530054,1128.6787262000144,None,1129.0373552999808,None,1130.058032299974,None,1133.4760989000206,None,1133.4760989000206,None,f,0.39579560002312064,1133.4760989000206,None,1133.8943357000244,None,,,,,,,rh,2022_Mar_02_1105,rdk-discrimination,2021.2.3,48.02919406844028,
left,left,,,,,1,43,123,3,0.01672988006612286,1.2667298800661229,1135.6362731999834,None,1136.4547967999824,None,1137.4758783999714,None,1141.4762091999874,None,1141.4762091999874,None,f,0.24335549998795614,1141.4762091999874,None,1141.7524415000225,None,,,,,,,rh,2022_Mar_02_1105,rdk-discrimination,2021.2.3,48.02919406844028,
none,left,,,,,1,44,124,45,0.01714178005931899,1.267141780059319,1143.4909054000163,None,1144.3089960999787,None,1145.3300230000168,None,1150.3305399999954,None,1150.3305399999954,None,f,0.5471145999617875,1150.3305399999954,None,1150.9124560999917,None,,,,,,,rh,2022_Mar_02_1105,rdk-discrimination,2021.2.3,48.02919406844028,
right,right,,,,,1,45,125,17,0.016526380029972643,1.2665263800299726,1152.638002199994,None,1153.4550929999677,None,1154.475835099991,None,1159.4762782999896,None,1159.4762782999896,None,j,0.2933226000168361,1159.4762782999896,None,1159.8087121999706,None,,,,,,,rh,2022_Mar_02_1105,rdk-discrimination,2021.2.3,48.02919406844028,
right,right,,,,,1,46,126,21,0.016403280023951083,1.266403280023951,1161.5325782999862,None,1162.3528550000046,None,1163.3717290000059,None,1168.372152899974,None,1168.372152899974,None,j,0.7627518000081182,1168.372152899974,None,1169.1630899999873,None,,,,,,,rh,2022_Mar_02_1105,rdk-discrimination,2021.2.3,48.02919406844028,
none,left,,,,,1,47,127,52,0.016387880023103207,1.2663878800231032,1170.8880791999982,None,1171.2469981000177,None,1172.2676613000222,None,1176.2682121999678,None,1176.2682121999678,None,f,0.5729010999784805,1176.2682121999678,None,1176.872560399992,None,,,,,,,rh,2022_Mar_02_1105,rdk-discrimination,2021.2.3,48.02919406844028,
left,left,,,,,1,48,128,0,0.016658079985063523,1.2666580799850635,1178.5950777999824,None,1179.4152679999825,None,1180.4342554999748,None,1185.4348874000134,None,1185.4348874000134,None,f,0.4076427999534644,1185.4348874000134,None,1185.8709995999816,None,,,,,,,rh,2022_Mar_02_1105,rdk-discrimination,2021.2.3,48.02919406844028,
none,right,,,,,1,49,129,76,0.016690480057150126,1.2666904800571501,1187.5960110999877,None,1188.413706799969,None,1189.434190800006,None,1193.4345226999721,None,1193.4345226999721,None,j,0.4645449999952689,1193.4345226999721,None,1193.9356745000114,None,,,,,,,rh,2022_Mar_02_1105,rdk-discrimination,2021.2.3,48.02919406844028,
none,right,,,,,1,50,130,77,0.016728680056985468,1.2667286800569855,1195.678179599985,None,1196.892352099996,None,1197.9137200000114,None,1201.9137813000125,None,1201.9137813000125,None,j,0.5159557000151835,1201.9137813000125,None,1202.4561430999893,None,,,,,,,rh,2022_Mar_02_1105,rdk-discrimination,2021.2.3,48.02919406844028,
right,right,,,,,1,51,131,16,0.017009180039167404,1.2670091800391674,1204.199309699994,None,1204.559361499967,None,1205.580391699972,None,1208.9972962000174,None,1208.9972962000174,None,j,0.3981307999929413,1208.9972962000174,None,1209.433947500016,None,,,,,,,rh,2022_Mar_02_1105,rdk-discrimination,2021.2.3,48.02919406844028,
none,right,,,,,1,52,132,63,0.016979580046609044,1.266979580046609,1211.1567693999968,None,1211.516341999988,None,1212.5387062000227,None,1217.0387633999926,None,1217.0387633999926,None,f,0.48487739998381585,1217.0387633999926,None,1217.564953299996,None,,,,,,,rh,2022_Mar_02_1105,rdk-discrimination,2021.2.3,48.02919406844028,
right,left,,,,,1,53,133,36,0.017052480019629,1.267052480019629,1219.3046893000137,None,1219.6630256000208,None,1220.6841479999712,None,1224.684932300006,None,1224.684932300006,None,j,0.2776407000492327,1224.684932300006,None,1224.9976842000033,None,,,,,,,rh,2022_Mar_02_1105,rdk-discrimination,2021.2.3,48.02919406844028,
left,left,,,,,1,54,134,12,0.01671167998574674,1.2667116799857467,1226.7204985999851,None,1227.9520691999933,None,1228.9554753999691,None,1233.455533100001,None,1233.455533100001,None,f,0.25481909996597096,1233.455533100001,None,1233.7523498000228,None,,,,,,,rh,2022_Mar_02_1105,rdk-discrimination,2021.2.3,48.02919406844028,
none,left,,,,,1,55,135,50,0.016734479984734207,1.2667344799847342,1235.4908633999876,None,1235.8505477000144,None,1236.8720289000194,None,1240.8724017000059,None,1240.8724017000059,None,j,0.5441555000143126,1240.8724017000059,None,1241.45469340001,None,,,,,,,rh,2022_Mar_02_1105,rdk-discrimination,2021.2.3,48.02919406844028,
left,left,,,,,1,56,136,4,0.016899780079256743,1.2668997800792567,1243.1782525000162,None,1243.5374162999797,None,1244.5581482999842,None,1249.0610222999821,None,1249.0610222999821,None,f,0.5875650999951176,1249.0610222999821,None,1249.6838466000045,None,,,,,,,rh,2022_Mar_02_1105,rdk-discrimination,2021.2.3,48.02919406844028,
none,right,,,,,1,57,137,62,0.016765980049967766,1.2667659800499678,1251.4072773000225,None,1252.2269926000154,None,1253.2470071999705,None,1257.7479195999913,None,1257.7479195999913,None,j,0.5431109999772161,1257.7479195999913,None,1258.329501500004,None,,,,,,,rh,2022_Mar_02_1105,rdk-discrimination,2021.2.3,48.02919406844028,
none,right,,,,,1,58,138,60,0.01695218001259491,1.266952180012595,1260.0536298999796,None,1260.4135155999684,None,1261.4347000999842,None,1265.954231199983,None,1265.954231199983,None,j,0.527566900011152,1265.954231199983,None,1266.5170340000186,None,,,,,,,rh,2022_Mar_02_1105,rdk-discrimination,2021.2.3,48.02919406844028,
left,right,,,,,1,59,139,35,0.01670038007432595,1.266700380074326,1268.240628200001,None,1268.6029533999972,None,1269.6223589999718,None,1273.622091999976,None,1273.622091999976,None,f,0.34537019999697804,1273.622091999976,None,1274.003060100018,None,,,,,,,rh,2022_Mar_02_1105,rdk-discrimination,2021.2.3,48.02919406844028,
left,left,,,,,1,60,140,6,0.016658079985063523,1.2666580799850635,1275.7419803999946,None,1276.957401200023,None,1277.9766126999748,None,1281.9764052999672,None,1281.9764052999672,None,f,0.3810224999906495,1281.9764052999672,None,1282.3984040999785,None,,,,,,,rh,2022_Mar_02_1105,rdk-discrimination,2021.2.3,48.02919406844028,
none,right,,,,,1,61,141,64,0.0166869800304994,1.2666869800304994,1284.1372580999741,None,1284.9570122999721,None,1285.9770882999874,None,1290.4974516999791,None,1290.4974516999791,None,j,0.5562000999925658,1290.4974516999791,None,1291.0796889999765,None,,,,,,,rh,2022_Mar_02_1105,rdk-discrimination,2021.2.3,48.02919406844028,
none,left,,,,,1,62,142,48,0.016841579985339195,1.2668415799853392,1292.8046079999767,None,1292.9135465999716,None,1293.9351189999725,None,1298.4349532999913,None,1298.4349532999913,None,f,0.4238065999816172,1298.4349532999913,None,1298.8924655999872,None,,,,,,,rh,2022_Mar_02_1105,rdk-discrimination,2021.2.3,48.02919406844028,
none,left,,,,,1,63,143,47,0.016970680037047714,1.2669706800370477,1300.616058500018,None,1300.7258259999799,None,1301.746763299976,None,1306.2473357999697,None,1306.2473357999697,None,f,0.5020568000036292,1306.2473357999697,None,1306.7881026999676,None,,,,,,,rh,2022_Mar_02_1105,rdk-discrimination,2021.2.3,48.02919406844028,
none,left,,,,,1,64,144,43,0.0165561800240539,1.266556180024054,1308.5120584999677,None,1309.7260334999883,None,1310.7472322999965,None,1314.1644233000115,None,1314.1644233000115,None,f,0.435801999992691,1314.1644233000115,None,1314.6233066999703,None,,,,,,,rh,2022_Mar_02_1105,rdk-discrimination,2021.2.3,48.02919406844028,
right,right,,,,,1,65,145,31,0.016672179976012558,1.2666721799760126,1316.3666322000208,None,1316.7251703999937,None,1317.7459766999818,None,1322.2487209999817,None,1322.2487209999817,None,j,0.2574364999891259,1322.2487209999817,None,1322.5374513000133,None,,,,,,,rh,2022_Mar_02_1105,rdk-discrimination,2021.2.3,48.02919406844028,
right,right,,,,,1,66,146,18,0.016924480034504086,1.266924480034504,1324.2617862999905,None,1325.0805231999839,None,1326.1013342000078,None,1329.5184163000085,None,1329.5184163000085,None,j,0.36282440001377836,1329.5184163000085,None,1329.91499379999,None,,,,,,,rh,2022_Mar_02_1105,rdk-discrimination,2021.2.3,48.02919406844028,
right,left,,,,,1,67,147,37,0.01707488001557067,1.2670748800155707,1331.6574851999758,None,1331.7675718999817,None,1332.7885060000117,None,1337.289276399999,None,1337.289276399999,None,j,0.4400628000148572,1337.289276399999,None,1337.7736714999774,None,,,,,,,rh,2022_Mar_02_1105,rdk-discrimination,2021.2.3,48.02919406844028,
none,left,,,,,1,68,148,56,0.01672108005732298,1.266721080057323,1339.5131454999791,None,1340.3297837999999,None,1341.3510982000153,None,1345.351755700016,None,1345.351755700016,None,f,0.49587739998241886,1345.351755700016,None,1345.8770016999915,None,,,,,,,rh,2022_Mar_02_1105,rdk-discrimination,2021.2.3,48.02919406844028,
left,right,,,,,1,69,149,33,0.016979079984594136,1.2669790799845941,1347.615456199972,None,1348.8319638000103,None,1349.8515485000098,None,1354.3516144999885,None,1354.3516144999885,None,f,0.38642329996218905,1354.3516144999885,None,1354.7742411000072,None,,,,,,,rh,2022_Mar_02_1105,rdk-discrimination,2021.2.3,48.02919406844028,
none,right,,,,,1,70,150,71,0.01668528001755476,1.2666852800175548,1356.5127034999896,None,1356.622193599993,None,1357.6431083999923,None,1362.1420209999778,None,1362.1420209999778,None,j,0.5903102000011131,1362.1420209999778,None,1362.773587499978,None,,,,,,,rh,2022_Mar_02_1105,rdk-discrimination,2021.2.3,48.02919406844028,
right,left,,,,,1,71,151,39,0.016825679980684072,1.266825679980684,1364.5126790999784,None,1365.728517999989,None,1366.7475849000039,None,1371.2476700000116,None,1371.2476700000116,None,j,0.3643407000345178,1371.2476700000116,None,1371.6480995999882,None,,,,,,,rh,2022_Mar_02_1105,rdk-discrimination,2021.2.3,48.02919406844028,
none,right,,,,,1,72,152,67,0.01702168007614091,1.267021680076141,1373.3875383000122,None,1374.601299299975,None,1375.6222447999753,None,1379.6211670999764,None,1379.6211670999764,None,f,0.5021118000149727,1379.6211670999764,None,1380.1632461000117,None,,,,,,,rh,2022_Mar_02_1105,rdk-discrimination,2021.2.3,48.02919406844028,
left,left,,,,,1,73,153,7,0.017745180055499077,1.267745180055499,1381.886095499969,None,1381.9973727000179,None,1383.0179469999857,None,1386.4347752999747,None,1386.4347752999747,None,f,0.3695657000062056,1386.4347752999747,None,1386.8312458000146,None,,,,,,,rh,2022_Mar_02_1105,rdk-discrimination,2021.2.3,48.02919406844028,
left,left,,,,,1,74,154,13,0.01691618002951145,1.2669161800295115,1388.57418950001,None,1388.933641200012,None,1389.95462829998,None,1393.3725481000147,None,1393.3725481000147,None,f,0.2730155000463128,1393.3725481000147,None,1393.6845136000193,None,,,,,,,rh,2022_Mar_02_1105,rdk-discrimination,2021.2.3,48.02919406844028,
left,left,,,,,1,75,155,11,0.016983379959128797,1.2669833799591288,1395.4088104999973,None,1395.5182353999699,None,1396.5386536999722,None,1400.5414545999956,None,1400.5414545999956,None,f,0.8057366999564692,1400.5414545999956,None,1401.3736189000192,None,,,,,,,rh,2022_Mar_02_1105,rdk-discrimination,2021.2.3,48.02919406844028,
none,left,,,,,1,76,156,51,0.016710880037862808,1.2667108800378628,1403.1179891999927,None,1403.9343720999896,None,1404.955338699976,None,1409.4560127999866,None,1409.4560127999866,None,f,0.4935220999759622,1409.4560127999866,None,1409.9757455000072,None,,,,,,,rh,2022_Mar_02_1105,rdk-discrimination,2021.2.3,48.02919406844028,
none,left,,,,,1,77,157,46,0.0164143800502643,1.2664143800502643,1411.699711000023,None,1412.0594671000144,None,1413.0808058999828,None,1417.0814184999908,None,1417.0814184999908,None,f,0.5553361000493169,1417.0814184999908,None,1417.664000699995,None,,,,,,,rh,2022_Mar_02_1105,rdk-discrimination,2021.2.3,48.02919406844028,
none,left,,,,,1,78,158,53,0.016732080082874745,1.2667320800828747,1419.3863536000135,None,1420.2053861999884,None,1421.2257970999926,None,1424.6433555000112,None,1424.6433555000112,None,f,0.5813740000012331,1424.6433555000112,None,1425.2466346999863,None,,,,,,,rh,2022_Mar_02_1105,rdk-discrimination,2021.2.3,48.02919406844028,
none,right,,,,,1,79,159,72,0.016653680009767413,1.2666536800097674,1426.9713959000073,None,1427.78883580002,None,1428.8103616000153,None,1432.2252905999776,None,1432.2252905999776,None,j,0.5875838000210933,1432.2252905999776,None,1432.850688799983,None,,,,,,,rh,2022_Mar_02_1105,rdk-discrimination,2021.2.3,48.02919406844028,
