cue,direction,practice_block_loop.thisRepN,practice_block_loop.thisTrialN,practice_block_loop.thisN,practice_block_loop.thisIndex,main_blocks_loop.thisRepN,main_blocks_loop.thisTrialN,main_blocks_loop.thisN,main_blocks_loop.thisIndex,static_isi.started,static_isi.stopped,fixation_pre.started,fixation_pre.stopped,image.started,image.stopped,fixation_post.started,fixation_post.stopped,dots_background.started,dots_background.stopped,dots_stimulus.started,dots_stimulus.stopped,dots_keyboard_response.keys,dots_keyboard_response.rt,dots_keyboard_response.started,dots_keyboard_response.stopped,feedback_text.started,feedback_text.stopped,instruction_main_text.started,instruction_main_text.stopped,instruction_main_keyboard_response.keys,instruction_main_keyboard_response.rt,instruction_main_keyboard_response.started,instruction_main_keyboard_response.stopped,Pseudonym,date,expName,psychopyVersion,frameRate,
right,left,0,0,0,3,,,,,0.01586981990840286,1.0158698199084029,23.980835800000932,None,24.365625699982047,None,25.348628200008534,None,29.349596699990798,None,29.349596699990798,None,f,0.7732243000064045,29.349596699990798,None,30.156185399973765,None,,,,,,,VPN01,2022_Mar_01_2142,rdk-discrimination,2021.2.3,59.986311110354,
none,right,0,1,1,5,,,,,0.01450376003049314,1.0145037600304931,31.64214680000441,None,32.44834639999317,None,33.44827829999849,None,37.94924089999404,None,37.94924089999404,None,j,0.7733043000334874,37.94924089999404,None,38.74828309996519,None,,,,,,,VPN01,2022_Mar_01_2142,rdk-discrimination,2021.2.3,59.986311110354,
right,right,0,2,2,1,,,,,0.014800960081629455,1.0148009600816295,40.2256386000081,None,41.43154959997628,None,42.43149990000529,None,47.43252719996963,None,47.43252719996963,None,f,0.9551457000197843,47.43252719996963,None,48.41557090001879,None,,,,,,,VPN01,2022_Mar_01_2142,rdk-discrimination,2021.2.3,59.986311110354,
left,left,0,3,3,0,,,,,0.014774359995499253,1.0147743599954993,49.89181840000674,None,50.69840950000798,None,51.698052699968684,None,56.69914799998514,None,56.69914799998514,None,j,1.09734410000965,56.69914799998514,None,57.814689599967096,None,,,,,,,VPN01,2022_Mar_01_2142,rdk-discrimination,2021.2.3,59.986311110354,
left,right,0,4,4,2,,,,,0.014774560055229813,1.0147745600552298,59.29151760000968,None,59.6481097000069,None,60.64793410000857,None,64.64927799999714,None,64.64927799999714,None,f,0.9901121000293642,64.64927799999714,None,65.66502229997423,None,,,,,,,VPN01,2022_Mar_01_2142,rdk-discrimination,2021.2.3,59.986311110354,
none,left,0,5,5,4,,,,,0.014793060021474957,1.014793060021475,67.14178509998601,None,67.94805259996792,None,68.94797109998763,None,72.34901840001112,None,72.34901840001112,None,f,1.055313599994406,72.34901840001112,None,73.43127329996787,None,,,,,,,VPN01,2022_Mar_01_2142,rdk-discrimination,2021.2.3,59.986311110354,
,,,,,,,,,,,,,,,,,,,,,,,,,,,,73.93146639998304,None,space,2.2981090000248514,73.93146639998304,None,VPN01,2022_Mar_01_2142,rdk-discrimination,2021.2.3,59.986311110354,
left,left,,,,,0,0,0,2,0.007094719971064478,1.0070947199710645,77.25142759998562,None,78.46787380002206,None,79.46484369999962,None,83.46566689998144,None,83.46566689998144,None,j,0.43484539998462424,83.46566689998144,None,83.93508680001833,None,,,,,,,VPN01,2022_Mar_01_2142,rdk-discrimination,2021.2.3,59.986311110354,
none,left,,,,,0,1,1,57,0.012095259968191385,1.0120952599681914,85.42840470001101,None,85.53307990002213,None,86.5315333000035,None,89.93245879997266,None,89.93245879997266,None,f,0.5861625999677926,89.93245879997266,None,90.55660239997087,None,,,,,,,VPN01,2022_Mar_01_2142,rdk-discrimination,2021.2.3,59.986311110354,
right,right,,,,,0,2,2,21,0.012737960030790418,1.0127379600307904,92.0449731000117,None,92.40019409998786,None,93.39801589999115,None,96.80196730000898,None,96.80196730000898,None,f,1.003698600048665,96.80196730000898,None,97.84710889996495,None,,,,,,,VPN01,2022_Mar_01_2142,rdk-discrimination,2021.2.3,59.986311110354,
none,left,,,,,0,3,3,52,0.010049659991636872,1.0100496599916369,99.33586390002165,None,100.54798049997771,None,101.54814359999727,None,106.05169659998501,None,106.05169659998501,None,j,0.8173788000131026,106.05169659998501,None,106.90830999996979,None,,,,,,,VPN01,2022_Mar_01_2142,rdk-discrimination,2021.2.3,59.986311110354,
right,right,,,,,0,4,4,20,0.012254460016265512,1.0122544600162655,108.39454180002213,None,108.74785280000651,None,109.7478311000159,None,113.14946849999251,None,113.14946849999251,None,j,0.8813735999865457,113.14946849999251,None,114.05742049997207,None,,,,,,,VPN01,2022_Mar_01_2142,rdk-discrimination,2021.2.3,59.986311110354,
right,left,,,,,0,5,5,36,0.012730859918519855,1.0127308599185199,115.54308169998694,None,115.65046639996581,None,116.64795319997938,None,120.04872059996706,None,120.04872059996706,None,f,1.068084899976384,120.04872059996706,None,121.13496980001219,None,,,,,,,VPN01,2022_Mar_01_2142,rdk-discrimination,2021.2.3,59.986311110354,
left,right,,,,,0,6,6,34,0.012946360046043992,1.012946360046044,122.62626029999228,None,122.98245339997811,None,123.98140509997029,None,127.983302299981,None,127.983302299981,None,j,0.9213502999627963,127.983302299981,None,128.9426153000095,None,,,,,,,VPN01,2022_Mar_01_2142,rdk-discrimination,2021.2.3,59.986311110354,
left,left,,,,,0,7,7,4,0.012156960030552,1.012156960030552,130.42723669996485,None,130.5308745999937,None,131.53106439998373,None,135.53193300002022,None,135.53193300002022,None,j,0.8005657999892719,135.53193300002022,None,136.36069800000405,None,,,,,,,VPN01,2022_Mar_01_2142,rdk-discrimination,2021.2.3,59.986311110354,
none,left,,,,,0,8,8,44,0.012760860030539334,1.0127608600305393,137.8429388999939,None,138.6478036000044,None,139.64794469997287,None,143.04970590001903,None,143.04970590001903,None,f,0.3853761000209488,143.04970590001903,None,143.4675468999776,None,,,,,,,VPN01,2022_Mar_01_2142,rdk-discrimination,2021.2.3,59.986311110354,
left,left,,,,,0,9,9,6,0.013529059942811728,1.0135290599428117,144.95951750001404,None,145.0644513000152,None,146.0641656999942,None,150.56528380000964,None,150.56528380000964,None,j,0.5904596000327729,150.56528380000964,None,151.1961962999776,None,,,,,,,VPN01,2022_Mar_01_2142,rdk-discrimination,2021.2.3,59.986311110354,
none,left,,,,,0,10,10,40,0.012857360066846013,1.012857360066846,152.676879799983,None,153.8841407999862,None,154.88129410002148,None,159.38560679997317,None,159.38560679997317,None,f,0.3738281999831088,159.38560679997317,None,159.79566800000612,None,,,,,,,VPN01,2022_Mar_01_2142,rdk-discrimination,2021.2.3,59.986311110354,
none,right,,,,,0,11,11,74,0.012464859988540411,1.0124648599885404,161.27710190002108,None,161.38230940001085,None,162.3807582000154,None,166.893909299979,None,166.893909299979,None,j,0.4182236999622546,166.893909299979,None,167.3362109999871,None,,,,,,,VPN01,2022_Mar_01_2142,rdk-discrimination,2021.2.3,59.986311110354,
right,left,,,,,0,12,12,38,0.012498560070525855,1.0124985600705259,168.8268592999666,None,169.18064330000198,None,170.18080530001316,None,175.19081890000962,None,175.19081890000962,None,f,0.5362694999785163,175.19081890000962,None,175.75000780000119,None,,,,,,,VPN01,2022_Mar_01_2142,rdk-discrimination,2021.2.3,59.986311110354,
right,right,,,,,0,13,13,19,0.012745959975291044,1.012745959975291,177.24400810000952,None,178.04911500000162,None,179.04738639999414,None,183.0484725999995,None,183.0484725999995,None,j,0.3859896000358276,183.0484725999995,None,183.4515760000213,None,,,,,,,VPN01,2022_Mar_01_2142,rdk-discrimination,2021.2.3,59.986311110354,
left,left,,,,,0,14,14,8,0.012253760010935366,1.0122537600109354,184.9437555000186,None,185.04723169998033,None,186.04747829999542,None,191.0486201000167,None,191.0486201000167,None,j,0.54732499999227,191.0486201000167,None,191.62783680000575,None,,,,,,,VPN01,2022_Mar_01_2142,rdk-discrimination,2021.2.3,59.986311110354,
none,left,,,,,0,15,15,59,0.01265176001470536,1.0126517600147054,193.10899430001155,None,193.46376989997225,None,194.46383889997378,None,199.4676909999689,None,199.4676909999689,None,f,0.41529689996968955,199.4676909999689,None,199.93575579999015,None,,,,,,,VPN01,2022_Mar_01_2142,rdk-discrimination,2021.2.3,59.986311110354,
left,left,,,,,0,16,16,12,0.012499659962486476,1.0124996599624865,201.42699289997108,None,202.63365119998343,None,203.6304502999992,None,207.03204540000297,None,207.03204540000297,None,j,0.9149000000325032,207.03204540000297,None,207.97609670000384,None,,,,,,,VPN01,2022_Mar_01_2142,rdk-discrimination,2021.2.3,59.986311110354,
none,right,,,,,0,17,17,63,0.010871559963561594,1.0108715599635616,209.4617949000094,None,210.6638201000169,None,211.66401339997537,None,215.06997549999505,None,215.06997549999505,None,f,0.41824410000117496,215.06997549999505,None,215.51810470002238,None,,,,,,,VPN01,2022_Mar_01_2142,rdk-discrimination,2021.2.3,59.986311110354,
none,left,,,,,0,18,18,50,0.012282659998163581,1.0122826599981636,217.00998490001075,None,218.21357319998788,None,219.21371949999593,None,222.61526250001043,None,222.61526250001043,None,j,1.2682153999921866,222.61526250001043,None,223.90826539997943,None,,,,,,,VPN01,2022_Mar_01_2142,rdk-discrimination,2021.2.3,59.986311110354,
none,right,,,,,0,19,19,65,0.012927859963383526,1.0129278599633835,225.39247610000893,None,226.59703180001816,None,227.59718320000684,None,232.5985126000014,None,232.5985126000014,None,f,1.0665328000322916,232.5985126000014,None,233.6836424000212,None,,,,,,,VPN01,2022_Mar_01_2142,rdk-discrimination,2021.2.3,59.986311110354,
none,right,,,,,0,20,20,78,0.012752060021739453,1.0127520600217395,235.17531520000193,None,235.98017519997666,None,236.9802858000039,None,240.38123820000328,None,240.38123820000328,None,j,0.8605232000118122,240.38123820000328,None,241.27334269997664,None,,,,,,,VPN01,2022_Mar_01_2142,rdk-discrimination,2021.2.3,59.986311110354,
none,left,,,,,0,21,21,56,0.012558260059449822,1.0125582600594498,242.7598144999938,None,242.86453959997743,None,243.8633286000113,None,248.36780259996885,None,248.36780259996885,None,None,,248.36780259996885,None,249.8785292999819,None,,,,,,,VPN01,2022_Mar_01_2142,rdk-discrimination,2021.2.3,59.986311110354,
right,right,,,,,0,22,22,17,0.014485060062725097,1.014485060062725,251.35905789997196,None,252.56506960000843,None,253.56370609998703,None,257.5674769000034,None,257.5674769000034,None,j,0.8522659000009298,257.5674769000034,None,258.4521573999664,None,,,,,,,VPN01,2022_Mar_01_2142,rdk-discrimination,2021.2.3,59.986311110354,
left,left,,,,,0,23,23,14,0.012352959951385856,1.0123529599513859,259.9435928000021,None,260.2984154999722,None,261.29662699997425,None,266.2977945000166,None,266.2977945000166,None,j,0.8771509999642149,266.2977945000166,None,267.20874979998916,None,,,,,,,VPN01,2022_Mar_01_2142,rdk-discrimination,2021.2.3,59.986311110354,
left,left,,,,,0,24,24,5,0.01220876001752913,1.0122087600175291,268.692898600013,None,269.0483041999978,None,270.04655169998296,None,274.0515048999805,None,274.0515048999805,None,f,0.7146954999770969,274.0515048999805,None,274.79038109997055,None,,,,,,,VPN01,2022_Mar_01_2142,rdk-discrimination,2021.2.3,59.986311110354,
right,right,,,,,0,25,25,28,0.011643559962976724,1.0116435599629767,276.2763638999895,None,277.0798407999682,None,278.07995669997763,None,283.08102440001676,None,283.08102440001676,None,f,0.8127193999825977,283.08102440001676,None,283.93125650001457,None,,,,,,,VPN01,2022_Mar_01_2142,rdk-discrimination,2021.2.3,59.986311110354,
right,right,,,,,0,26,26,25,0.012672659999225289,1.0126726599992253,285.4110104999854,None,286.21614919998683,None,287.2124719999847,None,290.6140984999947,None,290.6140984999947,None,f,1.0273888999945484,290.6140984999947,None,291.6651134999702,None,,,,,,,VPN01,2022_Mar_01_2142,rdk-discrimination,2021.2.3,59.986311110354,
none,left,,,,,0,27,27,47,0.011698860034812242,1.0116988600348122,293.14776600000914,None,293.964903199987,None,294.9633415999706,None,299.46724919998087,None,299.46724919998087,None,j,1.074672799964901,299.46724919998087,None,300.5666255999822,None,,,,,,,VPN01,2022_Mar_01_2142,rdk-discrimination,2021.2.3,59.986311110354,
none,left,,,,,0,28,28,53,0.012716260040178895,1.012716260040179,302.058678100002,None,302.86302029999206,None,303.8631141000078,None,307.86398329999065,None,307.86398329999065,None,j,0.9782699000206776,307.86398329999065,None,308.8647536999779,None,,,,,,,VPN01,2022_Mar_01_2142,rdk-discrimination,2021.2.3,59.986311110354,
right,right,,,,,0,29,29,30,0.012795960064977407,1.0127959600649774,310.3591294999933,None,311.56302770000184,None,312.56290560000343,None,316.56390860001557,None,316.56390860001557,None,j,0.658479499979876,316.56390860001557,None,317.256812800013,None,,,,,,,VPN01,2022_Mar_01_2142,rdk-discrimination,2021.2.3,59.986311110354,
none,right,,,,,0,30,30,61,0.012390760006383061,1.012390760006383,318.7413339000195,None,319.9462037999765,None,320.94645879999734,None,324.9501943999785,None,324.9501943999785,None,f,0.7904922000016086,324.9501943999785,None,325.7816414000117,None,,,,,,,VPN01,2022_Mar_01_2142,rdk-discrimination,2021.2.3,59.986311110354,
none,left,,,,,0,31,31,54,0.012554359971545637,1.0125543599715456,327.2751556999865,None,328.4809770999709,None,329.4793965999852,None,334.48447700002,None,334.48447700002,None,f,0.7905697000096552,334.48447700002,None,335.308680200018,None,,,,,,,VPN01,2022_Mar_01_2142,rdk-discrimination,2021.2.3,59.986311110354,
none,right,,,,,0,32,32,62,0.012717360048554838,1.0127173600485548,336.79159239999717,None,336.8958410000196,None,337.8959432999836,None,342.89698949997546,None,342.89698949997546,None,f,0.7626545000239275,342.89698949997546,None,343.69147469999734,None,,,,,,,VPN01,2022_Mar_01_2142,rdk-discrimination,2021.2.3,59.986311110354,
none,right,,,,,0,33,33,68,0.012693660042714328,1.0126936600427143,345.17504220001865,None,345.2793483000132,None,346.27958129998296,None,350.28046280000126,None,350.28046280000126,None,f,0.7171450000023469,350.28046280000126,None,351.0168729000143,None,,,,,,,VPN01,2022_Mar_01_2142,rdk-discrimination,2021.2.3,59.986311110354,
right,left,,,,,0,34,34,39,0.012527860002592206,1.0125278600025922,352.50901719997637,None,353.312426999968,None,354.3125834999955,None,359.3159824999748,None,359.3159824999748,None,j,0.7477733999839984,359.3159824999748,None,360.08582709997427,None,,,,,,,VPN01,2022_Mar_01_2142,rdk-discrimination,2021.2.3,59.986311110354,
left,left,,,,,0,35,35,0,0.012517359980847687,1.0125173599808477,361.5756597999716,None,362.7815386999864,None,363.7794039999717,None,368.2800653000013,None,368.2800653000013,None,f,0.7460850999923423,368.2800653000013,None,369.0564796999679,None,,,,,,,VPN01,2022_Mar_01_2142,rdk-discrimination,2021.2.3,59.986311110354,
none,right,,,,,0,36,36,69,0.012688460003118962,1.012688460003119,370.54265349998605,None,371.7476484000217,None,372.7460452999803,None,376.7498787000077,None,376.7498787000077,None,f,0.6662004999816418,376.7498787000077,None,377.4464688000153,None,,,,,,,VPN01,2022_Mar_01_2142,rdk-discrimination,2021.2.3,59.986311110354,
right,right,,,,,0,37,37,24,0.012256959977094084,1.012256959977094,378.92528640001547,None,379.28203719999874,None,380.27900719997706,None,385.2831560000195,None,385.2831560000195,None,j,0.544278800021857,385.2831560000195,None,385.85938420001185,None,,,,,,,VPN01,2022_Mar_01_2142,rdk-discrimination,2021.2.3,59.986311110354,
none,right,,,,,0,38,38,75,0.012484660022892058,1.012484660022892,387.342935499968,None,387.448507299996,None,388.4460189999663,None,392.4493950000033,None,392.4493950000033,None,f,0.44109079998452216,392.4493950000033,None,392.92184359999374,None,,,,,,,VPN01,2022_Mar_01_2142,rdk-discrimination,2021.2.3,59.986311110354,
right,right,,,,,0,39,39,29,0.012599660025443882,1.0125996600254439,394.4102306999848,None,395.61481200001435,None,396.6123251999961,None,401.6160845999839,None,401.6160845999839,None,j,0.38694960001157597,401.6160845999839,None,402.0304373999825,None,,,,,,,VPN01,2022_Mar_01_2142,rdk-discrimination,2021.2.3,59.986311110354,
none,right,,,,,0,40,40,79,0.012936060025822371,1.0129360600258224,403.52517129998887,None,404.32885190000525,None,405.3287925000186,None,409.8297420999734,None,409.8297420999734,None,f,0.512788099993486,409.8297420999734,None,410.3741297000088,None,,,,,,,VPN01,2022_Mar_01_2142,rdk-discrimination,2021.2.3,59.986311110354,
right,right,,,,,0,41,41,18,0.011319960001856089,1.011319960001856,411.85903340001823,None,413.06208309996873,None,414.0624030000181,None,418.06685629999265,None,418.06685629999265,None,f,1.1997372999903746,418.06685629999265,None,419.299920200021,None,,,,,,,VPN01,2022_Mar_01_2142,rdk-discrimination,2021.2.3,59.986311110354,
none,left,,,,,0,42,42,49,0.01276886003324762,1.0127688600332476,420.79038780002156,None,421.5953462999896,None,422.59549889998743,None,425.99626490002265,None,425.99626490002265,None,j,0.44516429997747764,425.99626490002265,None,426.4644199999748,None,,,,,,,VPN01,2022_Mar_01_2142,rdk-discrimination,2021.2.3,59.986311110354,
none,right,,,,,0,43,43,67,0.012474560004193336,1.0124745600041933,427.9571973999846,None,428.76202630001353,None,429.7621787000098,None,433.7660210999893,None,433.7660210999893,None,f,1.029814700013958,433.7660210999893,None,434.8152542000171,None,,,,,,,VPN01,2022_Mar_01_2142,rdk-discrimination,2021.2.3,59.986311110354,
none,left,,,,,0,44,44,51,0.012703960004728287,1.0127039600047283,436.30701639998006,None,437.11194949998753,None,438.1119982000091,None,441.51300550001906,None,441.51300550001906,None,f,0.6113093000021763,441.51300550001906,None,442.1564567000023,None,,,,,,,VPN01,2022_Mar_01_2142,rdk-discrimination,2021.2.3,59.986311110354,
left,right,,,,,0,45,45,32,0.012317659973632544,1.0123176599736325,443.64210920000914,None,444.44766259996686,None,445.44499410002027,None,449.9467647999991,None,449.9467647999991,None,j,0.41448310000123456,449.9467647999991,None,450.3807494000066,None,,,,,,,VPN01,2022_Mar_01_2142,rdk-discrimination,2021.2.3,59.986311110354,
none,right,,,,,0,46,46,66,0.012714360025711358,1.0127143600257114,451.87358830001904,None,453.0784706000122,None,454.0786648999783,None,459.0796043999726,None,459.0796043999726,None,f,0.8660034000058658,459.0796043999726,None,459.97763480001595,None,,,,,,,VPN01,2022_Mar_01_2142,rdk-discrimination,2021.2.3,59.986311110354,
right,right,,,,,0,47,47,23,0.012747960048727691,1.0127479600487277,461.4571983999922,None,461.5629005000228,None,462.56167309999,None,466.56277359998785,None,466.56277359998785,None,f,0.812294400006067,466.56277359998785,None,467.39824179996504,None,,,,,,,VPN01,2022_Mar_01_2142,rdk-discrimination,2021.2.3,59.986311110354,
left,left,,,,,0,48,48,7,0.012765460065566003,1.012765460065566,468.89010379998945,None,470.09670840000035,None,471.09524950000923,None,475.0973442000104,None,475.0973442000104,None,f,0.6668724000337534,475.0973442000104,None,475.79685470002005,None,,,,,,,VPN01,2022_Mar_01_2142,rdk-discrimination,2021.2.3,59.986311110354,
right,right,,,,,0,49,49,16,0.012718559999484569,1.0127185599994846,477.2913752999739,None,477.39763039996615,None,478.3949072000105,None,482.8962979000062,None,482.8962979000062,None,j,0.6636906000203453,482.8962979000062,None,483.5893698,None,,,,,,,VPN01,2022_Mar_01_2142,rdk-discrimination,2021.2.3,59.986311110354,
left,right,,,,,0,50,50,33,0.012774959963280708,1.0127749599632807,485.0736049999832,None,486.2797733999905,None,487.2785077000153,None,490.67938909999793,None,490.67938909999793,None,j,0.7457928999792784,490.67938909999793,None,491.4489708999754,None,,,,,,,VPN01,2022_Mar_01_2142,rdk-discrimination,2021.2.3,59.986311110354,
right,right,,,,,0,51,51,31,0.01276576000964269,1.0127657600096427,492.94061240000883,None,494.14464090002,None,495.144890399999,None,500.14587489998667,None,500.14587489998667,None,f,1.1346181000117213,500.14587489998667,None,501.30809070001123,None,,,,,,,VPN01,2022_Mar_01_2142,rdk-discrimination,2021.2.3,59.986311110354,
none,right,,,,,0,52,52,73,0.012749059998895973,1.012749059998896,502.7908812999958,None,502.89728729997296,None,503.89467760000844,None,508.3955389999901,None,508.3955389999901,None,j,0.8495060999994166,508.3955389999901,None,509.2706429999671,None,,,,,,,VPN01,2022_Mar_01_2142,rdk-discrimination,2021.2.3,59.986311110354,
none,left,,,,,0,53,53,42,0.012737860030028969,1.012737860030029,510.75644909997936,None,511.5629737999989,None,512.5613904999918,None,517.0661927000037,None,517.0661927000037,None,f,0.34151009999914095,517.0661927000037,None,517.4312185000163,None,,,,,,,VPN01,2022_Mar_01_2142,rdk-discrimination,2021.2.3,59.986311110354,
none,left,,,,,0,54,54,45,0.012493359972722828,1.0124933599727228,518.9250996999908,None,519.7281773000141,None,520.7282498999848,None,525.2289410000085,None,525.2289410000085,None,f,0.8280917000374757,525.2289410000085,None,526.0798656999832,None,,,,,,,VPN01,2022_Mar_01_2142,rdk-discrimination,2021.2.3,59.986311110354,
none,left,,,,,0,55,55,58,0.01273026003036648,1.0127302600303665,527.5743132000207,None,528.3782043000101,None,529.3778079000185,None,532.7824237999739,None,532.7824237999739,None,j,0.317771400033962,532.7824237999739,None,533.1371448999853,None,,,,,,,VPN01,2022_Mar_01_2142,rdk-discrimination,2021.2.3,59.986311110354,
left,left,,,,,0,56,56,11,0.012379360035993159,1.0123793600359932,534.6233158999821,None,534.9792297999957,None,535.9777415000135,None,540.9789921999909,None,540.9789921999909,None,f,0.30053899995982647,540.9789921999909,None,541.3102206999902,None,,,,,,,VPN01,2022_Mar_01_2142,rdk-discrimination,2021.2.3,59.986311110354,
none,left,,,,,0,57,57,55,0.011070760025177151,1.0110707600251772,542.7926078999881,None,542.894309299998,None,543.8946548000094,None,548.8957913999911,None,548.8957913999911,None,f,0.2695814000326209,548.8957913999911,None,549.1816935999668,None,,,,,,,VPN01,2022_Mar_01_2142,rdk-discrimination,2021.2.3,59.986311110354,
none,right,,,,,0,58,58,70,0.012132360017858446,1.0121323600178584,550.6744905000087,None,551.4776836999808,None,552.4776868000044,None,555.8785696999985,None,555.8785696999985,None,f,0.9642164999968372,555.8785696999985,None,556.87384439999,None,,,,,,,VPN01,2022_Mar_01_2142,rdk-discrimination,2021.2.3,59.986311110354,
left,left,,,,,0,59,59,10,0.012881060014478862,1.0128810600144789,558.3569362999988,None,559.1635724999942,None,560.1612158999778,None,565.1652769999928,None,565.1652769999928,None,j,0.7723777999635786,565.1652769999928,None,565.9614068000228,None,,,,,,,VPN01,2022_Mar_01_2142,rdk-discrimination,2021.2.3,59.986311110354,
right,right,,,,,0,60,60,22,0.01269906002562493,1.012699060025625,567.4393160999753,None,568.644215599983,None,569.6444612999912,None,573.0453299999936,None,573.0453299999936,None,f,0.76253030000953,573.0453299999936,None,573.8296429999755,None,,,,,,,VPN01,2022_Mar_01_2142,rdk-discrimination,2021.2.3,59.986311110354,
none,left,,,,,0,61,61,43,0.012768259970471263,1.0127682599704713,575.3239924000227,None,575.4276537999976,None,576.4274215999758,None,579.828820499999,None,579.828820499999,None,f,0.6816119999857619,579.828820499999,None,580.5394709999673,None,,,,,,,VPN01,2022_Mar_01_2142,rdk-discrimination,2021.2.3,59.986311110354,
left,left,,,,,0,62,62,3,0.012677759979851544,1.0126777599798515,582.022622599965,None,583.2333988000173,None,584.2276445999742,None,588.2281185999746,None,588.2281185999746,None,f,0.6656325000221841,588.2281185999746,None,588.914002400008,None,,,,,,,VPN01,2022_Mar_01_2142,rdk-discrimination,2021.2.3,59.986311110354,
none,right,,,,,0,63,63,71,0.01214656000956893,1.012146560009569,590.4074486999889,None,590.5138293000055,None,591.5106705999933,None,596.5115009999718,None,596.5115009999718,None,f,0.8989106999943033,596.5115009999718,None,597.4397213999764,None,,,,,,,VPN01,2022_Mar_01_2142,rdk-discrimination,2021.2.3,59.986311110354,
right,right,,,,,0,64,64,26,0.012789960019290447,1.0127899600192904,598.9235333999968,None,599.2786968,None,600.2773928999668,None,605.2786545999697,None,605.2786545999697,None,j,0.31456400000024587,605.2786545999697,None,605.6256985000218,None,,,,,,,VPN01,2022_Mar_01_2142,rdk-discrimination,2021.2.3,59.986311110354,
none,left,,,,,0,65,65,46,0.012523160025011748,1.0125231600250117,607.1087329000002,None,607.4605337000103,None,608.4605444999761,None,612.9654734000214,None,612.9654734000214,None,f,1.1295334000024013,612.9654734000214,None,614.1101924999966,None,,,,,,,VPN01,2022_Mar_01_2142,rdk-discrimination,2021.2.3,59.986311110354,
left,left,,,,,0,66,66,1,0.012627460004296154,1.0126274600042962,615.5891860999982,None,616.3941290000221,None,617.3938268999918,None,622.3950306000188,None,622.3950306000188,None,j,0.8109668000251986,622.3950306000188,None,623.2404950999771,None,,,,,,,VPN01,2022_Mar_01_2142,rdk-discrimination,2021.2.3,59.986311110354,
none,left,,,,,0,67,67,48,0.012960660038515925,1.012960660038516,624.7230254000169,None,624.8269952000119,None,625.8271804999677,None,630.3281405000016,None,630.3281405000016,None,f,1.3302621000329964,630.3281405000016,None,631.6872485000058,None,,,,,,,VPN01,2022_Mar_01_2142,rdk-discrimination,2021.2.3,59.986311110354,
left,left,,,,,0,68,68,15,0.012661159969866276,1.0126611599698663,633.1739800000214,None,634.3785069999867,None,635.3770691999816,None,640.381258599984,None,640.381258599984,None,j,1.4053811999619938,640.381258599984,None,641.823397399974,None,,,,,,,VPN01,2022_Mar_01_2142,rdk-discrimination,2021.2.3,59.986311110354,
none,left,,,,,0,69,69,41,0.012781660014297813,1.0127816600142978,643.3057790999883,None,643.4100094999885,None,644.4102268000133,None,648.413524899981,None,648.413524899981,None,f,1.1925796999712475,648.413524899981,None,649.6364211000036,None,,,,,,,VPN01,2022_Mar_01_2142,rdk-discrimination,2021.2.3,59.986311110354,
none,right,,,,,0,70,70,77,0.01279536000220105,1.012795360002201,651.1237702000071,None,651.4769486999721,None,652.476908200013,None,656.9784426999977,None,656.9784426999977,None,j,0.44458760000998154,656.9784426999977,None,657.4453535000212,None,,,,,,,VPN01,2022_Mar_01_2142,rdk-discrimination,2021.2.3,59.986311110354,
left,right,,,,,0,71,71,35,0.012769760040100664,1.0127697600401007,658.9394830999663,None,659.0432419999852,None,660.043278099969,None,664.0445044999942,None,664.0445044999942,None,f,0.6595644000335597,664.0445044999942,None,664.7394000000204,None,,,,,,,VPN01,2022_Mar_01_2142,rdk-discrimination,2021.2.3,59.986311110354,
right,right,,,,,0,72,72,27,0.01262066001072526,1.0126206600107253,666.2221676000045,None,666.5783844999969,None,667.5770251000067,None,671.5812021999736,None,671.5812021999736,None,j,0.38728140003513545,671.5812021999736,None,672.000744000019,None,,,,,,,VPN01,2022_Mar_01_2142,rdk-discrimination,2021.2.3,59.986311110354,
right,left,,,,,0,73,73,37,0.01259235996985808,1.012592359969858,673.488644899975,None,674.6960835999926,None,675.6933294999762,None,679.6971604999853,None,679.6971604999853,None,j,0.6588260999997146,679.6971604999853,None,680.39241640002,None,,,,,,,VPN01,2022_Mar_01_2142,rdk-discrimination,2021.2.3,59.986311110354,
none,right,,,,,0,74,74,72,0.012729260022751987,1.012729260022752,681.8733153999783,None,682.2286652000039,None,683.2264921999886,None,686.6285341000184,None,686.6285341000184,None,f,0.32928530004573986,686.6285341000184,None,686.9803920999984,None,,,,,,,VPN01,2022_Mar_01_2142,rdk-discrimination,2021.2.3,59.986311110354,
none,right,,,,,0,75,75,76,0.012757860007695854,1.0127578600076959,688.4720565999742,None,689.6765323000145,None,690.6766106999712,None,694.0781464999891,None,694.0781464999891,None,j,0.6099009000463411,694.0781464999891,None,694.7202691999846,None,,,,,,,VPN01,2022_Mar_01_2142,rdk-discrimination,2021.2.3,59.986311110354,
none,right,,,,,0,76,76,64,0.012609960045665503,1.0126099600456655,696.2058909999905,None,696.559817500005,None,697.5598565000109,None,702.5636739999754,None,702.5636739999754,None,f,0.5044476999901235,702.5636739999754,None,703.0998301000218,None,,,,,,,VPN01,2022_Mar_01_2142,rdk-discrimination,2021.2.3,59.986311110354,
left,left,,,,,0,77,77,9,0.01267706003272906,1.012677060032729,704.5887584000011,None,704.6947191000218,None,705.6930853999802,None,709.6970078999875,None,709.6970078999875,None,f,0.6236110999598168,709.6970078999875,None,710.3478201999678,None,,,,,,,VPN01,2022_Mar_01_2142,rdk-discrimination,2021.2.3,59.986311110354,
none,right,,,,,0,78,78,60,0.012691560026723891,1.012691560026724,711.8386290000053,None,711.9447710000095,None,712.9430728000007,None,717.446326299978,None,717.446326299978,None,j,0.8281332000042312,717.446326299978,None,718.2972792999935,None,,,,,,,VPN01,2022_Mar_01_2142,rdk-discrimination,2021.2.3,59.986311110354,
left,left,,,,,0,79,79,13,0.012771360052283853,1.0127713600522839,719.7885137000121,None,720.5944990999997,None,721.5930160999997,None,724.9938639000175,None,724.9938639000175,None,f,0.8028941999655217,724.9938639000175,None,725.8262277999893,None,,,,,,,VPN01,2022_Mar_01_2142,rdk-discrimination,2021.2.3,59.986311110354,
none,left,,,,,1,0,80,40,0.012976459984201938,1.012976459984202,727.3053340999759,None,728.5096730999649,None,729.5098404000164,None,734.0135769000044,None,734.0135769000044,None,j,0.8588301999843679,734.0135769000044,None,734.9062846999732,None,,,,,,,VPN01,2022_Mar_01_2142,rdk-discrimination,2021.2.3,59.986311110354,
none,right,,,,,1,1,81,72,0.012728460016660392,1.0127284600166604,736.388440700015,None,737.1928895000019,None,738.193046499975,None,742.1939181999769,None,742.1939181999769,None,f,1.0614554000203498,742.1939181999769,None,743.2781793000177,None,,,,,,,VPN01,2022_Mar_01_2142,rdk-discrimination,2021.2.3,59.986311110354,
none,left,,,,,1,2,82,48,0.0116975600249134,1.0116975600249134,744.7726361000095,None,745.976058900007,None,746.9761196000036,None,751.4770770000177,None,751.4770770000177,None,j,0.6318455000291578,751.4770770000177,None,752.1301251999685,None,,,,,,,VPN01,2022_Mar_01_2142,rdk-discrimination,2021.2.3,59.986311110354,
left,left,,,,,1,3,83,1,0.011821459978818893,1.011821459978819,753.622366799973,None,753.727678700001,None,754.7263112000073,None,759.2305316000129,None,759.2305316000129,None,f,0.7179431000258774,759.2305316000129,None,759.9794913000078,None,,,,,,,VPN01,2022_Mar_01_2142,rdk-discrimination,2021.2.3,59.986311110354,
right,right,,,,,1,4,84,20,0.012058759981300682,1.0120587599813007,761.4739145999774,None,762.2786673000082,None,763.2759882999817,None,768.2771395000163,None,768.2771395000163,None,j,0.5445923999650404,768.2771395000163,None,768.8444713000208,None,,,,,,,VPN01,2022_Mar_01_2142,rdk-discrimination,2021.2.3,59.986311110354,
none,right,,,,,1,5,85,64,0.012737060023937374,1.0127370600239374,770.3383598999935,None,770.4427364000003,None,771.4423435999779,None,775.4438301000046,None,775.4438301000046,None,f,1.0572867000009865,775.4438301000046,None,776.5389006999903,None,,,,,,,VPN01,2022_Mar_01_2142,rdk-discrimination,2021.2.3,59.986311110354,
none,right,,,,,1,6,86,68,0.01233756000874564,1.0123375600087456,778.0219460999942,None,778.3755893000052,None,779.3778841000167,None,783.8935866999673,None,783.8935866999673,None,j,0.8773450999869965,783.8935866999673,None,784.8046367000206,None,,,,,,,VPN01,2022_Mar_01_2142,rdk-discrimination,2021.2.3,59.986311110354,
left,left,,,,,1,7,87,0,0.01272596005583182,1.0127259600558318,786.288937299978,None,786.6446193999727,None,787.6423511999892,None,792.1435026999679,None,792.1435026999679,None,f,0.3770822999649681,792.1435026999679,None,792.5426914999844,None,,,,,,,VPN01,2022_Mar_01_2142,rdk-discrimination,2021.2.3,59.986311110354,
none,left,,,,,1,8,88,56,0.012744060077238828,1.0127440600772388,794.0212864999776,None,794.8257595999748,None,795.8259864000138,None,799.8291144999675,None,799.8291144999675,None,j,0.5071607999852858,799.8291144999675,None,800.3819488000008,None,,,,,,,VPN01,2022_Mar_01_2142,rdk-discrimination,2021.2.3,59.986311110354,
left,left,,,,,1,9,89,7,0.012601759983226657,1.0126017599832267,801.8716790999752,None,802.6787203999702,None,803.6756753000082,None,808.1767403999693,None,808.1767403999693,None,f,0.6011822000145912,808.1767403999693,None,808.8053223000024,None,,,,,,,VPN01,2022_Mar_01_2142,rdk-discrimination,2021.2.3,59.986311110354,
right,right,,,,,1,10,90,21,0.012736560020130128,1.0127365600201301,810.2884153000196,None,810.3921703000087,None,811.3924132999964,None,815.893522600003,None,815.893522600003,None,j,1.2238023999962024,815.893522600003,None,817.1434015000123,None,,,,,,,VPN01,2022_Mar_01_2142,rdk-discrimination,2021.2.3,59.986311110354,
right,right,,,,,1,11,91,26,0.012894460058305413,1.0128944600583054,818.6379141000216,None,818.9920530999661,None,819.9921631999896,None,823.9931287000072,None,823.9931287000072,None,f,0.3438124000094831,823.9931287000072,None,824.371528299991,None,,,,,,,VPN01,2022_Mar_01_2142,rdk-discrimination,2021.2.3,59.986311110354,
right,right,,,,,1,12,92,30,0.012708960042800754,1.0127089600428008,825.8549633999937,None,826.6588900000206,None,827.6586648999946,None,831.6623710999847,None,831.6623710999847,None,j,0.34202350000850856,831.6623710999847,None,832.0370319000212,None,,,,,,,VPN01,2022_Mar_01_2142,rdk-discrimination,2021.2.3,59.986311110354,
right,right,,,,,1,13,93,25,0.012667460017837584,1.0126674600178376,833.5219891999732,None,834.328002299997,None,835.3254497000016,None,839.8264093999751,None,839.8264093999751,None,f,0.4485071999952197,839.8264093999751,None,840.3040486999671,None,,,,,,,VPN01,2022_Mar_01_2142,rdk-discrimination,2021.2.3,59.986311110354,
none,left,,,,,1,14,94,59,0.011873760027810931,1.011873760027811,841.788416299969,None,842.5921532000066,None,843.5918791000149,None,846.9932825000142,None,846.9932825000142,None,j,0.6993734000134282,846.9932825000142,None,847.7119242000044,None,,,,,,,VPN01,2022_Mar_01_2142,rdk-discrimination,2021.2.3,59.986311110354,
left,right,,,,,1,15,95,32,0.012663259985856712,1.0126632599858567,849.2043648000108,None,850.0101174999727,None,851.0087134999922,None,856.0099318000139,None,856.0099318000139,None,f,0.57919670001138,856.0099318000139,None,856.6109788999893,None,,,,,,,VPN01,2022_Mar_01_2142,rdk-discrimination,2021.2.3,59.986311110354,
none,right,,,,,1,16,96,65,0.012802460056263953,1.012802460056264,858.1038802000112,None,858.9084852999658,None,859.90851009998,None,864.4097260999843,None,864.4097260999843,None,f,1.1457636000122875,864.4097260999843,None,865.5776196999941,None,,,,,,,VPN01,2022_Mar_01_2142,rdk-discrimination,2021.2.3,59.986311110354,
left,left,,,,,1,17,97,5,0.012583860021550208,1.0125838600215502,867.070737299975,None,867.4251206999761,None,868.4250547999982,None,872.4281990000163,None,872.4281990000163,None,f,0.9073451000149362,872.4281990000163,None,873.367058200005,None,,,,,,,VPN01,2022_Mar_01_2142,rdk-discrimination,2021.2.3,59.986311110354,
left,left,,,,,1,18,98,2,0.012188460037577897,1.012188460037578,874.8546730999951,None,875.2114839999704,None,876.2083680999931,None,880.2136364000035,None,880.2136364000035,None,j,1.058504200016614,880.2136364000035,None,881.306097499968,None,,,,,,,VPN01,2022_Mar_01_2142,rdk-discrimination,2021.2.3,59.986311110354,
left,left,,,,,1,19,99,10,0.012029659992549568,1.0120296599925496,882.7887664000154,None,882.8916093999869,None,883.8915586000076,None,888.892582600005,None,888.892582600005,None,j,0.8498610999668017,888.892582600005,None,889.7600262999767,None,,,,,,,VPN01,2022_Mar_01_2142,rdk-discrimination,2021.2.3,59.986311110354,
none,right,,,,,1,20,100,63,0.013653060072101653,1.0136530600721017,891.2521407000022,None,891.3581406999729,None,892.360957500001,None,897.3767185999895,None,897.3767185999895,None,j,0.2535152999917045,897.3767185999895,None,897.6821370999678,None,,,,,,,VPN01,2022_Mar_01_2142,rdk-discrimination,2021.2.3,59.986311110354,
right,right,,,,,1,21,101,22,0.012439159967470914,1.012439159967471,899.1716173000168,None,899.5247134999954,None,900.5246960999793,None,903.9264612999978,None,903.9264612999978,None,j,0.47753520001424477,903.9264612999978,None,904.4270290000131,None,,,,,,,VPN01,2022_Mar_01_2142,rdk-discrimination,2021.2.3,59.986311110354,
left,left,,,,,1,22,102,15,0.012726360000669956,1.01272636000067,905.9199179999996,None,906.0245953999693,None,907.0248270999873,None,912.0258460000041,None,912.0258460000041,None,f,0.3521432999987155,912.0258460000041,None,912.3936780000222,None,,,,,,,VPN01,2022_Mar_01_2142,rdk-discrimination,2021.2.3,59.986311110354,
right,right,,,,,1,23,103,31,0.012794259993825108,1.012794259993825,913.8876236000215,None,913.9914284999832,None,914.9916659999872,None,919.4964481000206,None,919.4964481000206,None,f,0.41177609999431297,919.4964481000206,None,919.9399951999658,None,,,,,,,VPN01,2022_Mar_01_2142,rdk-discrimination,2021.2.3,59.986311110354,
left,left,,,,,1,24,104,13,0.012504460057243705,1.0125044600572437,921.4197903000168,None,921.7762727999943,None,922.774709899968,None,926.1781052000006,None,926.1781052000006,None,j,0.4653196000144817,926.1781052000006,None,926.6623310999712,None,,,,,,,VPN01,2022_Mar_01_2142,rdk-discrimination,2021.2.3,59.986311110354,
left,left,,,,,1,25,105,6,0.012726960005238652,1.0127269600052387,928.153043999977,None,928.5104901000159,None,929.5079803999979,None,932.9129035000224,None,932.9129035000224,None,f,0.39105850004125386,932.9129035000224,None,933.3446692000143,None,,,,,,,VPN01,2022_Mar_01_2142,rdk-discrimination,2021.2.3,59.986311110354,
left,left,,,,,1,26,106,11,0.012302159972023219,1.0123021599720232,934.8377800000017,None,935.642846999981,None,936.6411751999985,None,940.042655600002,None,940.042655600002,None,f,0.5135776000097394,940.042655600002,None,940.5777299000183,None,,,,,,,VPN01,2022_Mar_01_2142,rdk-discrimination,2021.2.3,59.986311110354,
none,right,,,,,1,27,107,76,0.012457359989639372,1.0124573599896394,942.0708000999875,None,943.2745843000012,None,944.27474969998,None,948.7788225999684,None,948.7788225999684,None,j,0.34601829998428,948.7788225999684,None,949.1434829999926,None,,,,,,,VPN01,2022_Mar_01_2142,rdk-discrimination,2021.2.3,59.986311110354,
left,left,,,,,1,28,108,12,0.01283406000584364,1.0128340600058436,950.6368253999972,None,951.4426654999843,None,952.4409982999787,None,956.4462258999702,None,956.4462258999702,None,j,0.4219162999652326,956.4462258999702,None,956.8956479000044,None,,,,,,,VPN01,2022_Mar_01_2142,rdk-discrimination,2021.2.3,59.986311110354,
right,left,,,,,1,29,109,38,0.012465559993870556,1.0124655599938706,958.3871559000108,None,958.4936742999707,None,959.4911476999987,None,964.4927086000098,None,964.4927086000098,None,f,0.5133431000285782,964.4927086000098,None,965.0362544999807,None,,,,,,,VPN01,2022_Mar_01_2142,rdk-discrimination,2021.2.3,59.986311110354,
left,left,,,,,1,30,110,4,0.012777259980794042,1.012777259980794,966.5197617000085,None,966.8770507000154,None,967.8742785999784,None,971.8753326999722,None,971.8753326999722,None,f,0.7198449999559671,971.8753326999722,None,972.6263145999983,None,,,,,,,VPN01,2022_Mar_01_2142,rdk-discrimination,2021.2.3,59.986311110354,
left,right,,,,,1,31,111,33,0.011892360053025186,1.0118923600530252,974.1205053000012,None,974.2241331000114,None,975.2243261999683,None,978.6275395000121,None,978.6275395000121,None,f,0.7962532000383362,978.6275395000121,None,979.4611531000119,None,,,,,,,VPN01,2022_Mar_01_2142,rdk-discrimination,2021.2.3,59.986311110354,
none,right,,,,,1,32,112,79,0.01277616003062576,1.0127761600306258,980.9536625000183,None,981.7607838999829,None,982.760268300015,None,986.775620099972,None,986.775620099972,None,j,0.3770539000397548,986.775620099972,None,987.1837026000139,None,,,,,,,VPN01,2022_Mar_01_2142,rdk-discrimination,2021.2.3,59.986311110354,
none,left,,,,,1,33,113,50,0.012700260034762323,1.0127002600347623,988.6698430000106,None,989.8761463999981,None,990.8744223999674,None,994.8751947999699,None,994.8751947999699,None,f,0.5949780999799259,994.8751947999699,None,995.4930349999922,None,,,,,,,VPN01,2022_Mar_01_2142,rdk-discrimination,2021.2.3,59.986311110354,
none,left,,,,,1,34,114,41,0.012801960052456707,1.0128019600524567,996.9872212000191,None,997.3408644999727,None,998.3406909999903,None,1002.3423465999658,None,1002.3423465999658,None,f,0.6953704999759793,1002.3423465999658,None,1003.0609164999914,None,,,,,,,VPN01,2022_Mar_01_2142,rdk-discrimination,2021.2.3,59.986311110354,
none,right,,,,,1,35,115,74,0.011484760034363717,1.0114847600343637,1004.5542139000027,None,1005.7574303000001,None,1006.757616799965,None,1011.2609123999719,None,1011.2609123999719,None,j,0.6420750999823213,1011.2609123999719,None,1011.9291925000143,None,,,,,,,VPN01,2022_Mar_01_2142,rdk-discrimination,2021.2.3,59.986311110354,
none,right,,,,,1,36,116,77,0.01281166000990197,1.012811660009902,1013.419373599987,None,1013.7739242999814,None,1014.7737251999788,None,1018.7750551999779,None,1018.7750551999779,None,f,0.45227209996664897,1018.7750551999779,None,1019.2530337999924,None,,,,,,,VPN01,2022_Mar_01_2142,rdk-discrimination,2021.2.3,59.986311110354,
left,left,,,,,1,37,117,9,0.012815460038837045,1.012815460038837,1020.7358398999786,None,1021.0920950999716,None,1022.0905850999989,None,1027.0917631000048,None,1027.0917631000048,None,j,0.46178160002455115,1027.0917631000048,None,1027.5778266999987,None,,,,,,,VPN01,2022_Mar_01_2142,rdk-discrimination,2021.2.3,59.986311110354,
right,right,,,,,1,38,118,18,0.012300659960601479,1.0123006599606015,1029.06998749997,None,1030.2736453000107,None,1031.2738834000193,None,1035.2748225000105,None,1035.2748225000105,None,None,,1035.2748225000105,None,1036.7813276000088,None,,,,,,,VPN01,2022_Mar_01_2142,rdk-discrimination,2021.2.3,59.986311110354,
none,left,,,,,1,39,119,42,0.014468960056547076,1.014468960056547,1038.2673054999905,None,1039.0760414999677,None,1040.0736890999833,None,1044.0782290999778,None,1044.0782290999778,None,j,0.5088504000450484,1044.0782290999778,None,1044.6230816000025,None,,,,,,,VPN01,2022_Mar_01_2142,rdk-discrimination,2021.2.3,59.986311110354,
none,left,,,,,1,40,120,57,0.01248436007881537,1.0124843600788154,1046.1030650999746,None,1047.307089000009,None,1048.3073021000018,None,1052.3080936999759,None,1052.3080936999759,None,f,0.6836183000123128,1052.3080936999759,None,1053.021704600018,None,,,,,,,VPN01,2022_Mar_01_2142,rdk-discrimination,2021.2.3,59.986311110354,
right,left,,,,,1,41,121,36,0.012727060006000102,1.012727060006,1054.504188299994,None,1055.7068801000132,None,1056.7069316999987,None,1060.7078095999896,None,1060.7078095999896,None,f,0.6941099000396207,1060.7078095999896,None,1061.4258529000217,None,,,,,,,VPN01,2022_Mar_01_2142,rdk-discrimination,2021.2.3,59.986311110354,
none,right,,,,,1,42,122,71,0.012725260050501674,1.0127252600505017,1062.9192576999776,None,1064.1257198000094,None,1065.123688499967,None,1069.6276088000159,None,1069.6276088000159,None,j,0.6910937000066042,1069.6276088000159,None,1070.3402320999885,None,,,,,,,VPN01,2022_Mar_01_2142,rdk-discrimination,2021.2.3,59.986311110354,
right,right,,,,,1,43,123,27,0.012745859974529594,1.0127458599745296,1071.8195159999887,None,1071.923284599965,None,1072.9234933999833,None,1076.9247430000105,None,1076.9247430000105,None,f,0.36137200001394376,1076.9247430000105,None,1077.320244100003,None,,,,,,,VPN01,2022_Mar_01_2142,rdk-discrimination,2021.2.3,59.986311110354,
none,left,,,,,1,44,124,58,0.012464559986256063,1.012464559986256,1078.802717500017,None,1079.1565920999856,None,1080.15687050001,None,1084.1580189999659,None,1084.1580189999659,None,f,0.36619999998947605,1084.1580189999659,None,1084.5524399999995,None,,,,,,,VPN01,2022_Mar_01_2142,rdk-discrimination,2021.2.3,59.986311110354,
none,left,,,,,1,45,125,43,0.01270816003670916,1.0127081600367092,1086.0363475999911,None,1087.2399707000004,None,1088.2401236000005,None,1092.241045599978,None,1092.241045599978,None,j,0.5937151999678463,1092.241045599978,None,1092.8690726999776,None,,,,,,,VPN01,2022_Mar_01_2142,rdk-discrimination,2021.2.3,59.986311110354,
left,left,,,,,1,46,126,8,0.012476660020183772,1.0124766600201838,1094.3518259999692,None,1095.1589015999925,None,1096.1568010000046,None,1100.6605757999932,None,1100.6605757999932,None,f,0.5503054999862798,1100.6605757999932,None,1101.2496458999813,None,,,,,,,VPN01,2022_Mar_01_2142,rdk-discrimination,2021.2.3,59.986311110354,
none,right,,,,,1,47,127,78,0.012828460021410137,1.0128284600214101,1102.7357649999904,None,1103.5398673000163,None,1104.5399592000176,None,1108.5409650999936,None,1108.5409650999936,None,j,0.6647350999992341,1108.5409650999936,None,1109.225792400015,None,,,,,,,VPN01,2022_Mar_01_2142,rdk-discrimination,2021.2.3,59.986311110354,
left,right,,,,,1,48,128,34,0.012607760028913617,1.0126077600289136,1110.7197026999784,None,1110.8231679999735,None,1111.8230994999758,None,1115.224574699998,None,1115.224574699998,None,f,0.6891452000127174,1115.224574699998,None,1115.944548200001,None,,,,,,,VPN01,2022_Mar_01_2142,rdk-discrimination,2021.2.3,59.986311110354,
left,left,,,,,1,49,129,14,0.01275525992969051,1.0127552599296905,1117.4357706999872,None,1117.5429385000025,None,1118.53975180001,None,1121.940797999967,None,1121.940797999967,None,f,0.5961532999644987,1121.940797999967,None,1122.5682735000155,None,,,,,,,VPN01,2022_Mar_01_2142,rdk-discrimination,2021.2.3,59.986311110354,
right,right,,,,,1,50,130,28,0.01285315997665748,1.0128531599766575,1124.0524579000194,None,1124.8591443999903,None,1125.856481899973,None,1129.8574806000106,None,1129.8574806000106,None,j,0.4763204999617301,1129.8574806000106,None,1130.3606119999895,None,,,,,,,VPN01,2022_Mar_01_2142,rdk-discrimination,2021.2.3,59.986311110354,
right,right,,,,,1,51,131,19,0.012601060036104172,1.0126010600361042,1131.852435800014,None,1131.9565699999803,None,1132.9563641999848,None,1137.4572276999825,None,1137.4572276999825,None,f,0.4002096999902278,1137.4572276999825,None,1137.8855583000113,None,,,,,,,VPN01,2022_Mar_01_2142,rdk-discrimination,2021.2.3,59.986311110354,
left,left,,,,,1,52,132,3,0.012646659975871444,1.0126466599758714,1139.3681747000082,None,1140.5759531999938,None,1141.5731150999782,None,1146.0740768999676,None,1146.0740768999676,None,j,0.33575099997688085,1146.0740768999676,None,1146.425798500015,None,,,,,,,VPN01,2022_Mar_01_2142,rdk-discrimination,2021.2.3,59.986311110354,
none,right,,,,,1,53,133,61,0.012772760004736483,1.0127727600047365,1147.918571999995,None,1149.12275759998,None,1150.122864999983,None,1154.1239839000045,None,1154.1239839000045,None,f,0.31406519998563454,1154.1239839000045,None,1154.459498799988,None,,,,,,,VPN01,2022_Mar_01_2142,rdk-discrimination,2021.2.3,59.986311110354,
none,right,,,,,1,54,134,62,0.012740459991618991,1.012740459991619,1155.9527001999668,None,1156.7572637000121,None,1157.7562250000192,None,1162.2604175999877,None,1162.2604175999877,None,f,0.7262389999814332,1162.2604175999877,None,1163.0086934000137,None,,,,,,,VPN01,2022_Mar_01_2142,rdk-discrimination,2021.2.3,59.986311110354,
none,right,,,,,1,55,135,60,0.012725959997624159,1.0127259599976242,1164.5012796000228,None,1165.3060692999861,None,1166.3061115000164,None,1170.3069608000224,None,1170.3069608000224,None,None,,1170.3069608000224,None,1171.8136893999763,None,,,,,,,VPN01,2022_Mar_01_2142,rdk-discrimination,2021.2.3,59.986311110354,
none,left,,,,,1,56,136,45,0.014457260025665164,1.0144572600256652,1173.300439500017,None,1174.5059555000043,None,1175.5060085000005,None,1180.5070189000107,None,1180.5070189000107,None,f,0.40284719999181107,1180.5070189000107,None,1180.936128899979,None,,,,,,,VPN01,2022_Mar_01_2142,rdk-discrimination,2021.2.3,59.986311110354,
none,left,,,,,1,57,137,47,0.012972260010428727,1.0129722600104287,1182.4181619000155,None,1182.7725853999727,None,1183.772530700022,None,1188.7742536999867,None,1188.7742536999867,None,j,0.43111980002140626,1188.7742536999867,None,1189.2385578000103,None,,,,,,,VPN01,2022_Mar_01_2142,rdk-discrimination,2021.2.3,59.986311110354,
none,left,,,,,1,58,138,54,0.012441260041669011,1.012441260041669,1190.7191994999885,None,1190.8229763999698,None,1191.8229293000186,None,1195.825433399994,None,1195.825433399994,None,f,0.4434373999829404,1195.825433399994,None,1196.30259929999,None,,,,,,,VPN01,2022_Mar_01_2142,rdk-discrimination,2021.2.3,59.986311110354,
right,left,,,,,1,59,139,37,0.012509060034062713,1.0125090600340627,1197.7856577999773,None,1198.1422353999806,None,1199.13907689997,None,1203.1406677999767,None,1203.1406677999767,None,j,0.34714020002866164,1203.1406677999767,None,1203.5234735999838,None,,,,,,,VPN01,2022_Mar_01_2142,rdk-discrimination,2021.2.3,59.986311110354,
none,right,,,,,1,60,140,66,0.012786859937477857,1.0127868599374779,1205.0013784000184,None,1205.1057335999794,None,1206.1057173999725,None,1211.1096558999852,None,1211.1096558999852,None,f,0.7118779000011273,1211.1096558999852,None,1211.8432182999677,None,,,,,,,VPN01,2022_Mar_01_2142,rdk-discrimination,2021.2.3,59.986311110354,
right,left,,,,,1,61,141,39,0.012723860039841384,1.0127238600398414,1213.3345681999926,None,1213.4391096999752,None,1214.4389482999686,None,1217.8425585000077,None,1217.8425585000077,None,j,0.6240327000268735,1217.8425585000077,None,1218.491024899995,None,,,,,,,VPN01,2022_Mar_01_2142,rdk-discrimination,2021.2.3,59.986311110354,
right,right,,,,,1,62,142,17,0.012780959950760007,1.01278095995076,1219.9851950000157,None,1220.088878599985,None,1221.088913100015,None,1225.0899963999982,None,1225.0899963999982,None,f,0.5128153000259772,1225.0899963999982,None,1225.6246288999682,None,,,,,,,VPN01,2022_Mar_01_2142,rdk-discrimination,2021.2.3,59.986311110354,
right,right,,,,,1,63,143,29,0.012473159993533045,1.012473159993533,1227.118369599979,None,1227.9220860999776,None,1228.922332199989,None,1232.9233129000058,None,1232.9233129000058,None,j,0.46259810001356527,1232.9233129000058,None,1233.4152802000172,None,,,,,,,VPN01,2022_Mar_01_2142,rdk-discrimination,2021.2.3,59.986311110354,
none,right,,,,,1,64,144,73,0.012796260009054095,1.012796260009054,1234.9014098999905,None,1235.0070614999859,None,1236.0053488999838,None,1239.4068549000076,None,1239.4068549000076,None,f,0.9503807000000961,1239.4068549000076,None,1240.3866476999829,None,,,,,,,VPN01,2022_Mar_01_2142,rdk-discrimination,2021.2.3,59.986311110354,
right,right,,,,,1,65,145,16,0.011700959992595017,1.011700959992595,1241.8683096999885,None,1242.6751263000187,None,1243.6723674999666,None,1247.674482100003,None,1247.674482100003,None,j,0.410168300033547,1247.674482100003,None,1248.116443099978,None,,,,,,,VPN01,2022_Mar_01_2142,rdk-discrimination,2021.2.3,59.986311110354,
none,right,,,,,1,66,146,70,0.012748660054057837,1.0127486600540578,1249.6010937999818,None,1249.705473000009,None,1250.705575799977,None,1254.10615279997,None,1254.10615279997,None,f,0.8075576999690384,1254.10615279997,None,1254.9419020999921,None,,,,,,,VPN01,2022_Mar_01_2142,rdk-discrimination,2021.2.3,59.986311110354,
none,left,,,,,1,67,147,46,0.01241186005063355,1.0124118600506335,1256.4345246999874,None,1257.6386697000125,None,1258.638666599989,None,1263.6396086000022,None,1263.6396086000022,None,j,0.75284750002902,1263.6396086000022,None,1264.4237652000156,None,,,,,,,VPN01,2022_Mar_01_2142,rdk-discrimination,2021.2.3,59.986311110354,
left,right,,,,,1,68,148,35,0.01274356001522392,1.012743560015224,1265.9172680000192,None,1266.7668379999814,None,1267.7386191000114,None,1272.7395362000098,None,1272.7395362000098,None,f,0.7105613999883644,1272.7395362000098,None,1273.4733522000024,None,,,,,,,VPN01,2022_Mar_01_2142,rdk-discrimination,2021.2.3,59.986311110354,
none,left,,,,,1,69,149,44,0.012506760016549379,1.0125067600165494,1274.9685599000077,None,1275.321851500019,None,1276.3219031000044,None,1279.7230109999655,None,1279.7230109999655,None,f,1.0960255999816582,1279.7230109999655,None,1280.849731299968,None,,,,,,,VPN01,2022_Mar_01_2142,rdk-discrimination,2021.2.3,59.986311110354,
right,right,,,,,1,70,150,24,0.012562560033984482,1.0125625600339845,1282.3353561999975,None,1283.1382759999833,None,1284.1382816999685,None,1287.54023579997,None,1287.54023579997,None,f,0.4106500999769196,1287.54023579997,None,1287.984176500002,None,,,,,,,VPN01,2022_Mar_01_2142,rdk-discrimination,2021.2.3,59.986311110354,
none,left,,,,,1,71,151,52,0.012672759999986738,1.0126727599999867,1289.4674967000028,None,1289.5717003999744,None,1290.5717754000216,None,1294.5725682000048,None,1294.5725682000048,None,j,0.5273298000101931,1294.5725682000048,None,1295.122848799976,None,,,,,,,VPN01,2022_Mar_01_2142,rdk-discrimination,2021.2.3,59.986311110354,
none,left,,,,,1,72,152,53,0.012666859955061227,1.0126668599550612,1296.6179204999935,None,1296.7216088999994,None,1297.7218243000098,None,1302.7272862999816,None,1302.7272862999816,None,f,0.6053281999775209,1302.7272862999816,None,1303.3797041000216,None,,,,,,,VPN01,2022_Mar_01_2142,rdk-discrimination,2021.2.3,59.986311110354,
none,left,,,,,1,73,153,51,0.012719460064545274,1.0127194600645453,1304.8673545999918,None,1305.2231147999992,None,1306.2216093000025,None,1310.7234670000034,None,1310.7234670000034,None,f,0.9643520999816246,1310.7234670000034,None,1311.70678030001,None,,,,,,,VPN01,2022_Mar_01_2142,rdk-discrimination,2021.2.3,59.986311110354,
none,right,,,,,1,74,154,75,0.012767960026394576,1.0127679600263946,1313.2020037000184,None,1314.0051537000109,None,1315.0048489000183,None,1319.5057003999827,None,1319.5057003999827,None,f,0.6822093999944627,1319.5057003999827,None,1320.2180810999707,None,,,,,,,VPN01,2022_Mar_01_2142,rdk-discrimination,2021.2.3,59.986311110354,
none,left,,,,,1,75,155,55,0.012736560020130128,1.0127365600201301,1321.699888699979,None,1322.5047882000217,None,1323.504911499971,None,1326.905895999982,None,1326.905895999982,None,f,0.6817903000046499,1326.905895999982,None,1327.6181248999783,None,,,,,,,VPN01,2022_Mar_01_2142,rdk-discrimination,2021.2.3,59.986311110354,
right,right,,,,,1,76,156,23,0.012805260019376874,1.0128052600193769,1329.1004425999708,None,1329.4550959999906,None,1330.4546707000118,None,1335.4555889000185,None,1335.4555889000185,None,f,0.9012927999719977,1335.4555889000185,None,1336.3844587000203,None,,,,,,,VPN01,2022_Mar_01_2142,rdk-discrimination,2021.2.3,59.986311110354,
none,right,,,,,1,77,157,67,0.012681560008786619,1.0126815600087866,1337.8668167999713,None,1338.2213367000222,None,1339.2215529999812,None,1343.7225860999897,None,1343.7225860999897,None,j,0.40052100003231317,1343.7225860999897,None,1344.1536205000011,None,,,,,,,VPN01,2022_Mar_01_2142,rdk-discrimination,2021.2.3,59.986311110354,
none,left,,,,,1,78,158,49,0.012538560025859624,1.0125385600258596,1345.6343624999863,None,1345.7396518000169,None,1346.7378277999815,None,1350.7392188999802,None,1350.7392188999802,None,f,0.6143768999609165,1350.7392188999802,None,1351.375592199969,None,,,,,,,VPN01,2022_Mar_01_2142,rdk-discrimination,2021.2.3,59.986311110354,
none,right,,,,,1,79,159,69,0.012823759985622019,1.012823759985622,1352.8665133999893,None,1353.2212170999846,None,1354.2213755999692,None,1358.7240827999776,None,1358.7240827999776,None,f,0.41170490003423765,1358.7240827999776,None,1359.1675778999925,None,,,,,,,VPN01,2022_Mar_01_2142,rdk-discrimination,2021.2.3,59.986311110354,
