subject,trial_num,condition,signal_present,correct,rt
2,2,bias,0,0,1.167
2,3,bias,1,1,0.598
2,4,bias,1,1,0.375
2,5,bias,0,1,0.454
2,6,bias,1,1,0.4100000000002328
2,7,bias,1,1,0.3700000000002327
2,8,bias,1,1,0.559
2,9,bias,1,1,0.3250000000002328
2,10,bias,1,1,0.313
2,11,bias,0,1,0.27999999999976716
2,12,bias,0,1,0.353
2,13,bias,0,1,0.55
2,14,bias,1,0,0.9460000000002328
2,15,bias,1,1,0.73
2,16,bias,1,1,0.331
2,17,bias,1,1,0.353
2,18,bias,0,1,0.981
2,19,bias,0,1,0.502
2,20,bias,0,1,0.582
2,21,bias,0,1,0.313
2,22,bias,0,1,0.339
2,23,bias,0,1,0.407
2,24,bias,1,1,0.3760000000002328
2,1,no_bias,0,1,0.862
2,2,no_bias,1,1,0.419
2,3,no_bias,1,1,0.546
2,4,no_bias,0,1,0.34
2,5,no_bias,1,0,0.596
2,6,no_bias,0,1,0.344
2,7,no_bias,0,1,0.315
2,8,no_bias,1,1,0.321
2,9,no_bias,1,1,0.335
2,10,no_bias,0,1,0.337
2,11,no_bias,1,1,0.376
2,12,no_bias,0,1,1.4539999999997673
2,13,no_bias,1,1,0.332
2,14,no_bias,1,1,0.375
2,15,no_bias,1,1,0.581
2,16,no_bias,1,1,0.5989999999997672
2,17,no_bias,0,0,0.894
2,18,no_bias,0,1,0.9480000000002328
2,19,no_bias,0,1,0.688
2,20,no_bias,1,0,2.277
2,21,no_bias,0,1,0.4479999999997673
2,22,no_bias,0,1,0.33199999999976715
2,23,no_bias,1,1,0.266
2,24,no_bias,0,0,0.556
2,25,bias,0,1,1.759
2,26,bias,1,1,0.35200000000023285
2,27,bias,0,1,0.732
2,28,bias,1,0,1.867
2,29,bias,1,1,0.35399999999976717
2,30,bias,1,1,0.322
2,31,bias,0,1,0.3699999999997672
2,32,bias,1,1,1.129
2,33,bias,0,1,0.352
2,34,bias,0,1,0.446
2,35,bias,0,1,0.4330000000002327
2,36,bias,0,1,0.8610000000002328
2,37,bias,1,1,0.154
2,38,bias,0,1,1.06
2,39,bias,1,1,0.387
2,40,bias,0,1,0.615
2,42,bias,0,1,0.297
2,43,bias,0,1,0.761
2,44,bias,0,1,0.347
2,45,bias,1,1,0.35800000000023285
2,46,bias,1,1,1.0400000000002327
2,47,bias,1,1,0.632
2,48,bias,1,1,0.258
2,49,bias,1,0,2.975
2,52,bias,0,1,0.372
2,53,bias,0,1,0.372
2,54,bias,0,1,0.428
2,55,bias,1,1,0.4079999999997672
2,56,bias,1,1,1.446
2,57,bias,1,1,0.407
2,58,bias,1,1,0.462
2,59,bias,0,1,3.349
2,60,bias,0,1,2.231625
2,61,bias,1,1,0.4310000000002327
2,62,bias,1,1,0.3660000000002327
2,63,bias,1,0,0.393
2,64,bias,1,0,1.103
2,65,bias,1,1,0.496
2,66,bias,1,0,0.846
2,67,bias,0,1,0.946
2,68,bias,0,1,0.403
2,69,bias,0,1,0.321
2,71,bias,0,1,0.307
2,72,bias,1,1,0.3989999999997672
2,25,no_bias,0,1,0.828
2,26,no_bias,0,1,0.7510000000002328
2,27,no_bias,1,0,0.8609999999997672
2,28,no_bias,0,1,0.55
2,29,no_bias,1,1,0.52
2,30,no_bias,1,0,0.4920000000002327
2,31,no_bias,0,1,0.347
2,32,no_bias,0,0,0.5740000000002329
2,33,no_bias,0,1,0.524
2,34,no_bias,0,1,0.471
2,35,no_bias,1,0,0.5539999999997671
2,36,no_bias,0,1,0.5299999999997672
2,37,no_bias,0,1,0.5429999999997672
2,38,no_bias,1,1,1.764
2,39,no_bias,1,0,0.382
2,40,no_bias,1,0,0.409
2,41,no_bias,1,0,0.619
2,42,no_bias,1,0,0.444
2,43,no_bias,0,1,0.26800000000023283
2,44,no_bias,1,0,0.343
2,45,no_bias,0,1,0.458
2,46,no_bias,0,1,0.33899999999976715
2,47,no_bias,1,1,0.106
2,48,no_bias,1,0,0.3130000000002328
2,73,bias,1,0,0.6230000000002328
2,75,bias,1,0,0.7940000000002329
2,76,bias,1,0,0.413
2,77,bias,1,1,0.844
2,78,bias,0,1,0.3650000000002327
2,79,bias,1,0,0.348
2,80,bias,1,1,0.433
2,81,bias,0,1,0.423
2,82,bias,0,1,0.396
2,83,bias,1,0,0.538
2,84,bias,0,1,0.783
2,85,bias,1,0,1.5458749999999708
2,86,bias,0,1,1.785
2,87,bias,1,0,0.7779999999997672
2,88,bias,0,1,0.845
2,89,bias,0,1,1.122
2,90,bias,0,1,1.943
2,91,bias,1,1,0.878
2,92,bias,1,0,0.7929999999997672
2,93,bias,0,1,0.8439999999997672
2,95,bias,1,0,0.725
2,96,bias,0,1,0.356
2,49,no_bias,0,1,1.399
2,50,no_bias,0,1,0.902
2,51,no_bias,1,0,0.372
2,52,no_bias,0,1,0.913
2,53,no_bias,1,0,0.7169999999997672
2,54,no_bias,1,1,0.36200000000023275
2,55,no_bias,1,0,0.607
2,56,no_bias,1,0,0.291
2,57,no_bias,0,1,0.359
2,58,no_bias,0,1,0.6880000000002329
2,59,no_bias,1,0,0.681
2,60,no_bias,0,1,0.6569999999997672
2,61,no_bias,1,1,0.5849999999997672
2,62,no_bias,0,1,0.704
2,63,no_bias,1,1,0.364
2,64,no_bias,0,1,0.392
2,65,no_bias,1,1,0.345
2,66,no_bias,1,0,0.101
2,67,no_bias,0,1,0.376
2,68,no_bias,1,0,0.38
2,69,no_bias,0,1,0.317
2,70,no_bias,1,0,0.432
2,71,no_bias,0,1,0.3919999999997672
2,72,no_bias,0,1,0.348
2,97,bias,1,0,1.07
2,98,bias,1,0,0.3660000000002327
2,99,bias,1,0,0.401
2,100,bias,1,0,0.339
2,101,bias,0,1,0.326
2,102,bias,1,0,0.243
2,103,bias,0,1,0.272
2,104,bias,0,1,0.34700000000023284
2,105,bias,0,1,0.3019999999997672
2,106,bias,1,0,0.316
2,107,bias,1,0,0.687
2,108,bias,0,0,0.902
2,109,bias,0,1,0.396
2,110,bias,1,0,0.435
2,111,bias,0,1,0.409
2,112,bias,1,0,0.35
2,113,bias,0,1,0.364
2,114,bias,0,1,0.636
2,115,bias,1,1,0.5170000000004656
2,116,bias,0,1,0.3220000000002328
2,117,bias,0,1,0.8610000000004656
2,118,bias,0,0,0.5269999999995343
2,119,bias,1,0,0.538
2,120,bias,1,0,1.619000000000233
2,73,no_bias,1,0,0.3209999999997672
2,74,no_bias,1,1,0.5550000000002329
2,75,no_bias,0,1,0.27599999999976715
2,76,no_bias,0,0,0.379
2,77,no_bias,0,1,0.28100000000046566
2,78,no_bias,1,0,0.345
2,79,no_bias,0,1,0.415
2,80,no_bias,1,1,0.257
2,81,no_bias,0,1,0.655
2,82,no_bias,0,1,0.395
2,83,no_bias,0,1,0.374
2,84,no_bias,1,0,0.605
2,85,no_bias,0,1,0.321
2,86,no_bias,1,1,0.528
2,87,no_bias,1,1,0.319
2,88,no_bias,0,1,0.68
2,89,no_bias,1,1,0.439
2,90,no_bias,0,1,0.843
2,91,no_bias,0,1,0.604
2,92,no_bias,1,1,0.514
2,93,no_bias,1,0,0.317
2,94,no_bias,1,0,0.808
2,95,no_bias,0,1,0.456
2,96,no_bias,1,1,0.243
2,97,no_bias,0,1,3.481
2,98,no_bias,1,1,0.29900000000046567
2,99,no_bias,1,0,1.111
2,100,no_bias,1,1,1.224
2,101,no_bias,0,1,0.998
2,102,no_bias,0,1,0.38
2,103,no_bias,1,0,0.712
2,104,no_bias,1,0,0.392
2,105,no_bias,0,1,0.352
2,106,no_bias,1,0,0.48
2,107,no_bias,1,1,0.601
2,108,no_bias,0,1,0.319
2,109,no_bias,1,1,0.275
2,110,no_bias,0,1,0.33400000000046565
2,111,no_bias,0,1,0.207
2,112,no_bias,1,1,0.337
2,113,no_bias,0,1,0.67
2,114,no_bias,0,1,0.617
2,115,no_bias,1,1,1.19
2,116,no_bias,0,1,0.529
2,117,no_bias,1,1,0.342
2,118,no_bias,0,0,1.035
2,119,no_bias,1,1,0.33099999999953433
2,120,no_bias,0,1,0.495
2,121,no_bias,1,1,0.765
2,122,no_bias,1,1,0.399
2,123,no_bias,0,1,0.34
2,124,no_bias,1,1,0.3189999999995343
2,125,no_bias,1,1,0.19
2,126,no_bias,1,1,0.314
2,127,no_bias,1,1,0.167
2,128,no_bias,0,1,0.462
2,129,no_bias,0,1,0.587
2,130,no_bias,0,0,0.55
2,131,no_bias,0,1,0.308
2,132,no_bias,0,1,0.164
2,133,no_bias,0,1,0.599
2,134,no_bias,1,1,0.687
2,135,no_bias,1,1,0.35599999999953436
2,136,no_bias,0,1,0.408
2,137,no_bias,0,1,1.1820000000004656
2,138,no_bias,0,1,0.33999999999953434
2,139,no_bias,1,1,0.27
2,140,no_bias,0,1,0.6959999999995343
2,141,no_bias,1,1,0.339
2,142,no_bias,0,1,0.3
2,143,no_bias,1,1,0.318
2,144,no_bias,1,1,0.367
2,122,bias,1,1,0.395
2,123,bias,1,1,0.333
2,124,bias,0,1,0.542
2,125,bias,1,1,0.182
2,126,bias,1,0,0.21900000000046568
2,127,bias,1,1,0.38899999999953433
2,128,bias,1,1,0.46
2,129,bias,0,1,0.389
2,130,bias,0,1,0.645
2,131,bias,0,1,1.029
2,132,bias,0,1,0.324
2,133,bias,0,1,0.364
2,134,bias,1,0,0.708
2,135,bias,0,1,0.652
2,136,bias,1,1,0.46
2,137,bias,0,1,1.108
2,139,bias,1,1,0.392
2,140,bias,0,1,0.36
2,141,bias,1,1,0.11599999999953434
2,142,bias,0,1,0.497
2,143,bias,0,1,0.585
2,144,bias,1,0,1.652
3,1,no_bias,0,1,2.5975
3,2,no_bias,1,0,0.7397999999523163
3,3,no_bias,1,0,0.2945
3,5,no_bias,0,1,0.5617999999523163
3,6,no_bias,0,1,0.46039999997615816
3,7,no_bias,0,1,0.3121999999284744
3,8,no_bias,0,1,0.48779999995231627
3,9,no_bias,0,1,0.3437000000476837
3,10,no_bias,1,0,0.35110000002384184
3,11,no_bias,0,1,0.5568999999761581
3,12,no_bias,0,1,0.8546999999284745
3,13,no_bias,1,1,0.8577000000476838
3,14,no_bias,0,0,1.8952000000476832
3,15,no_bias,0,1,0.4893000000715256
3,16,no_bias,0,1,0.3246000000238419
3,17,no_bias,1,1,0.6749000000953674
3,18,no_bias,1,1,0.7103000000715256
3,19,no_bias,0,1,1.5028000000715256
3,20,no_bias,1,1,0.3452999999523163
3,21,no_bias,1,1,0.13379999995231628
3,22,no_bias,1,1,0.3298000000715256
3,23,no_bias,1,1,0.5193999999761582
3,24,no_bias,1,1,0.5174000000953675
3,25,no_bias,0,1,2.5807999999523163
3,26,no_bias,0,1,0.5635
3,27,no_bias,0,1,0.3876000000238419
3,28,no_bias,1,0,0.4048000000715256
3,29,no_bias,0,1,0.6883000000715256
3,30,no_bias,0,1,0.48860000002384185
3,31,no_bias,1,1,1.2647000000476836
3,32,no_bias,1,1,0.7452000000476837
3,33,no_bias,1,1,0.930100000023842
3,34,no_bias,1,1,0.5259000000953674
3,35,no_bias,1,1,0.5306000000238419
3,36,no_bias,0,0,0.9477000000476836
3,37,no_bias,1,1,0.41160000002384184
3,38,no_bias,0,1,0.5512000000476838
3,39,no_bias,1,1,0.4133999999761581
3,40,no_bias,0,1,0.6285
3,41,no_bias,1,1,0.453
3,42,no_bias,0,1,0.6138999999761582
3,43,no_bias,1,1,1.2026999999284744
3,44,no_bias,0,1,1.1392000000476834
3,45,no_bias,1,1,0.20969999992847443
3,46,no_bias,0,1,0.3495
3,47,no_bias,1,1,0.29810000002384185
3,48,no_bias,0,1,0.5707999999523163
3,50,no_bias,1,1,1.2262000000476836
3,51,no_bias,1,1,0.7173999999761581
3,52,no_bias,1,1,1.0195
3,53,no_bias,1,1,0.9087000000476836
3,54,no_bias,0,1,1.1968999999761578
3,56,no_bias,1,1,0.4265
3,58,no_bias,0,1,0.629
3,59,no_bias,0,1,0.6456999999284744
3,60,no_bias,0,1,3.100899999976158
3,61,no_bias,1,1,0.8482999999523163
3,62,no_bias,1,1,1.3967999999523164
3,63,no_bias,1,0,2.4002999999523165
3,64,no_bias,1,0,0.7715
3,66,no_bias,0,1,0.6171000000238419
3,67,no_bias,0,1,0.7497999999523163
3,68,no_bias,1,0,2.714099999904633
3,69,no_bias,0,1,0.8492000000476837
3,71,no_bias,0,1,2.9027999999523164
3,1,bias,0,0,2.1293000000715256
3,2,bias,0,1,1.8305
3,4,bias,1,1,1.8665999999046328
3,5,bias,1,1,0.456
3,6,bias,0,0,0.8318999999761582
3,7,bias,0,0,1.0972000000476836
3,8,bias,0,1,1.1363999999761578
3,9,bias,0,1,1.3071999999284745
3,10,bias,1,1,1.088100000023842
3,11,bias,1,1,0.45639999997615815
3,12,bias,1,1,0.32440000009536746
3,13,bias,1,1,0.2617999999523163
3,14,bias,1,1,0.276
3,15,bias,0,1,0.795
3,16,bias,1,1,0.4331999999284744
3,17,bias,1,1,0.382
3,18,bias,0,0,0.4238999999761581
3,19,bias,0,1,0.5866000000238418
3,20,bias,0,1,0.395
3,21,bias,1,1,0.29260000002384184
3,22,bias,1,1,0.27220000004768374
3,23,bias,0,1,0.4355
3,24,bias,0,1,0.3454000000953674
3,25,bias,1,0,2.276600000023842
3,26,bias,1,0,0.6808999999761581
3,27,bias,0,1,1.5373999999761578
3,28,bias,1,1,0.917899999976158
3,29,bias,1,1,0.549
3,30,bias,0,0,1.53804999999702
3,31,bias,0,1,1.193
3,32,bias,1,1,0.6498999999761581
3,33,bias,1,0,1.407399999976158
3,34,bias,0,0,0.4427999999523163
3,35,bias,0,1,1.9543000000715256
3,36,bias,0,1,0.6225
3,37,bias,1,0,0.999399999976158
3,38,bias,0,1,0.609
3,39,bias,1,0,2.472
3,40,bias,0,1,0.7251000000238419
3,41,bias,1,1,0.39620000004768374
3,42,bias,0,1,0.9834000000953674
3,43,bias,1,1,0.23860000002384185
3,44,bias,0,0,0.35880000007152557
3,45,bias,1,1,2.583024999991059
3,46,bias,0,1,0.980600000023842
3,47,bias,1,0,0.904399999976158
3,48,bias,0,1,1.5637000000476835
3,73,no_bias,0,0,0.2025
3,74,no_bias,0,0,0.29510000002384185
3,75,no_bias,1,1,0.4456000000238418
3,76,no_bias,1,1,0.17480000007152555
3,77,no_bias,0,0,1.6184624999910593
3,78,no_bias,1,1,0.9132000000476836
3,79,no_bias,0,0,2.7611875
3,80,no_bias,1,1,1.9686999999284744
3,82,no_bias,0,1,0.3762000000476837
3,83,no_bias,0,1,0.41929999995231626
3,84,no_bias,1,1,0.2747999999523163
3,85,no_bias,1,1,0.639
3,86,no_bias,0,1,0.7805
3,87,no_bias,1,1,0.636
3,89,no_bias,1,1,0.3246000000238419
3,91,no_bias,0,1,0.5951999999284744
3,92,no_bias,0,0,0.5245
3,94,no_bias,1,1,0.5013999999761581
3,95,no_bias,0,1,0.4642000000476837
3,49,bias,0,1,1.771899999976158
3,50,bias,0,1,0.8961000000238418
3,52,bias,1,1,0.5806000000238418
3,53,bias,1,1,0.4947000000476837
3,54,bias,0,0,0.35780000007152557
3,55,bias,1,1,1.0896000000238422
3,56,bias,0,1,0.524
3,57,bias,1,0,0.7847999999523163
3,58,bias,0,0,0.7673999999761582
3,60,bias,0,0,0.3832000000476838
3,62,bias,0,0,0.7407999999523163
3,63,bias,1,1,0.2582999999523163
3,64,bias,1,1,2.592399999976158
3,65,bias,0,0,2.6715
3,66,bias,1,1,1.777
3,67,bias,0,1,0.31110000002384186
3,68,bias,1,1,0.6428999999761581
3,69,bias,0,1,0.7717999999523163
3,70,bias,0,1,0.4306999999284744
3,71,bias,1,1,0.7428999999761582
3,72,bias,1,1,0.4428000000715256
3,97,no_bias,1,1,0.5682000000476837
3,98,no_bias,1,1,0.2863999999761581
3,99,no_bias,1,1,0.41110000002384184
3,100,no_bias,1,1,0.7457999999523163
3,101,no_bias,1,1,0.29510000002384185
3,102,no_bias,0,1,1.13
3,103,no_bias,0,0,0.43389999997615813
3,104,no_bias,0,0,0.3875
3,106,no_bias,0,1,1.381899999976158
3,107,no_bias,1,1,0.5382999999523163
3,108,no_bias,1,0,0.8226000000238418
3,109,no_bias,0,0,0.3687000000476837
3,110,no_bias,1,0,0.6830999999046325
3,111,no_bias,0,1,0.488
3,112,no_bias,0,1,1.2462000000476834
3,113,no_bias,1,0,0.5133000000715255
3,114,no_bias,0,0,0.37759999990463256
3,115,no_bias,0,1,0.40260000002384183
3,116,no_bias,0,1,0.39339999997615815
3,117,no_bias,0,1,0.55
3,118,no_bias,1,1,0.4417000000476837
3,119,no_bias,1,1,0.383
3,73,bias,1,0,0.9461999999284744
3,74,bias,0,1,1.7653000000715255
3,75,bias,1,1,0.935100000023842
3,77,bias,1,1,0.7322999999523163
3,78,bias,0,1,0.4205999999046326
3,79,bias,1,1,0.3527000000476837
3,80,bias,0,0,1.1401000000238422
3,81,bias,0,1,2.699600000023842
3,82,bias,1,1,0.6835
3,83,bias,1,0,0.8202999999523163
3,84,bias,1,1,0.34530000007152556
3,85,bias,1,1,0.32539999997615815
3,87,bias,0,1,1.565100000023842
3,89,bias,0,1,1.317600000023842
3,90,bias,0,1,0.4268999999761582
3,91,bias,0,1,0.2961999999284744
3,92,bias,0,1,0.34489999997615817
3,93,bias,0,1,0.33889999997615816
3,94,bias,1,1,0.4183000000715256
3,95,bias,1,1,1.6678000000715256
3,96,bias,0,1,2.4038000000715254
3,97,bias,0,0,1.3385999999940394
3,98,bias,1,1,1.235100000023842
3,99,bias,0,0,0.46560000002384183
3,100,bias,1,1,0.176
3,101,bias,0,1,1.5148000000715256
3,103,bias,0,0,1.8815
3,104,bias,1,1,0.21390000009536744
3,105,bias,1,1,1.1875
3,106,bias,0,1,0.3775
3,107,bias,0,1,0.6638999999761581
3,108,bias,0,1,0.2942000000476837
3,109,bias,0,1,0.6572000000476838
3,110,bias,1,1,0.2535
3,111,bias,0,1,0.9342999999523164
3,112,bias,1,0,1.1175
3,113,bias,0,1,1.9603000000715256
3,114,bias,1,1,1.9005
3,115,bias,1,0,2.906600000023842
3,116,bias,1,1,0.6723999999761582
3,117,bias,0,0,2.959700000047684
3,118,bias,1,1,0.9727999999523164
3,120,bias,1,1,0.8697999999523163
3,121,bias,1,1,0.3668999999761582
3,122,bias,0,1,0.7237000000476838
3,123,bias,1,1,0.584
3,124,bias,0,0,0.3291000000238419
3,125,bias,1,1,1.9745
3,127,bias,0,0,0.4545
3,128,bias,1,1,0.36560000002384185
3,129,bias,1,1,0.18010000002384186
3,131,bias,1,1,0.23860000002384185
3,132,bias,1,1,2.407
3,133,bias,1,1,2.355900000095367
3,134,bias,0,0,1.5577999999523164
3,135,bias,1,1,0.5190999999046325
3,136,bias,0,1,1.933
3,137,bias,0,0,0.4947000000476837
3,138,bias,0,1,0.32489999997615815
3,139,bias,1,1,0.5756000000238418
3,140,bias,0,0,0.43739999997615814
3,141,bias,0,1,2.564399999976158
3,142,bias,0,1,2.822400000095367
3,121,no_bias,1,1,1.0217999999523164
3,122,no_bias,1,0,3.346700000047684
3,123,no_bias,1,1,1.0064000000953677
3,124,no_bias,0,0,1.4333374999910593
3,125,no_bias,0,1,1.025
3,126,no_bias,1,1,1.0182999999523163
3,127,no_bias,1,0,0.6906000000238418
3,128,no_bias,0,0,0.3173000000715256
3,129,no_bias,1,1,0.12469999992847444
3,130,no_bias,0,0,0.8918999999761581
3,131,no_bias,0,0,0.3562000000476837
3,132,no_bias,1,1,0.29929999995231626
3,133,no_bias,0,0,0.345
3,134,no_bias,0,1,0.4782000000476837
3,135,no_bias,1,1,0.36210000002384185
3,136,no_bias,1,0,0.7825
3,137,no_bias,0,0,0.3888000000715256
3,138,no_bias,0,0,0.7372999999523163
3,139,no_bias,0,0,0.6212000000476837
3,140,no_bias,1,1,0.8423999999761581
3,141,no_bias,0,0,0.48279999995231626
3,142,no_bias,0,0,0.5066000000238419
3,143,no_bias,1,1,0.34930000007152556
6,2,no_bias,1,1,2.722339999992866
6,3,no_bias,1,1,2.5355750000015833
6,4,no_bias,1,1,2.677029999991646
6,5,no_bias,1,1,2.723570000001928
6,6,no_bias,0,1,2.502590000003809
6,7,no_bias,0,1,2.529300000009127
6,8,no_bias,0,1,2.3840500000079627
6,9,no_bias,1,1,2.4511300000012852
6,10,no_bias,0,1,2.6174450000107754
6,11,no_bias,0,1,2.1005799999984447
6,12,no_bias,0,1,2.417574999999488
6,13,no_bias,1,1,2.5126100000052247
6,14,no_bias,0,1,1.7395050000050103
6,15,no_bias,0,1,2.1160950000048615
6,16,no_bias,0,1,2.456269999995129
6,17,no_bias,1,0,3.102735000007786
6,18,no_bias,0,1,1.0383500000024215
6,19,no_bias,1,1,2.6020100000023376
6,20,no_bias,1,1,0.343974999996135
6,21,no_bias,0,1,1.2937499999969733
6,22,no_bias,1,0,2.3131949999951757
6,23,no_bias,1,1,1.0500050000119954
6,24,no_bias,0,1,0.8886999999959954
6,2,bias,1,1,1.307889999996405
6,3,bias,1,1,1.754914999997709
6,4,bias,1,1,0.923804999998305
6,5,bias,0,1,0.9027849999982864
6,6,bias,0,1,1.323344999996945
6,7,bias,1,1,1.1342599999918603
6,8,bias,0,1,0.8725399999967777
6,9,bias,0,1,1.415724999999162
6,10,bias,1,1,0.8136700000031851
6,11,bias,1,1,0.7213250000057742
6,12,bias,1,1,0.8427300000037067
6,13,bias,0,1,2.3455400000093505
6,15,bias,0,1,2.665964999992866
6,16,bias,0,1,0.8992949999957346
6,17,bias,1,1,0.7460250000003725
6,18,bias,0,1,1.2650449999929405
6,19,bias,1,1,1.24487499998929
6,20,bias,0,1,0.8526399999973364
6,21,bias,0,1,0.6546300000045449
6,22,bias,1,1,0.9084799999985844
6,23,bias,0,1,0.8603000000002794
6,24,bias,0,1,0.9596000000019558
6,26,no_bias,0,1,0.6548349999939092
6,27,no_bias,1,1,0.842894999993965
6,28,no_bias,1,1,0.3790749999894761
6,29,no_bias,0,1,0.6945850000046193
6,30,no_bias,1,1,0.5824850000063889
6,31,no_bias,1,1,0.15667499999096618
6,32,no_bias,1,0,0.8280550000052899
6,33,no_bias,0,1,0.8446399999954738
6,34,no_bias,0,1,0.7156499999980442
6,35,no_bias,0,1,0.7492849999982863
6,36,no_bias,1,1,0.6191699999906123
6,37,no_bias,0,1,0.917000000001397
6,38,no_bias,0,1,1.0150750000029802
6,39,no_bias,1,1,0.6680599999963306
6,40,no_bias,0,1,0.6905200000037439
6,41,no_bias,1,1,0.5839500000001863
6,42,no_bias,0,1,2.6543149999924935
6,43,no_bias,1,1,0.6559649999979883
6,44,no_bias,1,1,0.5417299999971874
6,45,no_bias,0,1,0.7731550000025891
6,46,no_bias,1,1,0.3854150000116788
6,47,no_bias,0,1,2.749739999999292
6,48,no_bias,0,1,1.5389500000020488
6,26,bias,0,1,1.8860349999889732
6,27,bias,1,1,1.4535550000001676
6,28,bias,1,1,0.9064599999985656
6,29,bias,0,1,0.6640050000133925
6,30,bias,1,1,0.9227799999937416
6,31,bias,1,1,0.6713949999976904
6,32,bias,1,1,0.6730549999917858
6,33,bias,0,1,0.6152150000128895
6,34,bias,0,1,0.9622999999988824
6,35,bias,1,1,0.6723999999957159
6,36,bias,0,1,0.6898650000076741
6,37,bias,0,1,0.5848600000026636
6,38,bias,0,1,1.0834100000066684
6,39,bias,1,1,0.8823399999965914
6,40,bias,0,1,0.7985350000089966
6,41,bias,1,1,0.7179449999965727
6,42,bias,1,1,1.352635000003036
6,43,bias,1,1,0.933765000008978
6,44,bias,1,1,0.9220100000090896
6,45,bias,0,1,0.6157050000037998
6,46,bias,0,1,0.7437199999983423
6,47,bias,0,1,1.2642950000008568
6,48,bias,1,0,2.624260000011418
6,49,bias,0,1,3.323569999992847
6,50,bias,1,1,0.9748849999890664
6,51,bias,0,1,0.9799849999980068
6,52,bias,0,1,0.640230000004638
6,53,bias,1,1,0.660550000000745
6,54,bias,0,1,0.8629049999872223
6,55,bias,0,1,1.406329999997746
6,56,bias,1,1,0.6880850000018254
6,57,bias,0,1,0.7670849999990315
6,58,bias,1,1,0.5779149999869987
6,59,bias,1,1,0.8021199999935925
6,60,bias,1,1,0.7454500000020489
6,61,bias,0,1,0.7125999999986962
6,62,bias,1,1,0.549249999997206
6,63,bias,0,1,0.6889799999911338
6,64,bias,1,1,1.135705000007525
6,65,bias,0,1,1.0027600000035015
6,66,bias,0,1,0.8971349999913946
6,67,bias,1,1,0.7255750000039115
6,68,bias,1,1,0.6679549999972806
6,69,bias,1,1,0.7446449999995529
6,70,bias,0,1,0.8513200000021607
6,71,bias,0,1,0.8492350000012666
6,72,bias,1,1,0.6143199999928475
6,74,bias,0,1,0.5493149999966845
6,75,bias,0,1,0.6598050000034272
6,76,bias,0,1,1.3598100000089035
6,77,bias,1,1,1.5697950000027197
6,78,bias,0,1,0.7416250000093132
6,79,bias,1,1,0.7092050000065938
6,80,bias,0,1,0.6426649999925866
6,81,bias,0,1,1.0383549999976531
6,82,bias,1,1,0.6722149999989196
6,83,bias,1,1,0.6351050000078976
6,84,bias,0,1,1.329219999998808
6,85,bias,1,1,0.5096799999875948
6,86,bias,0,1,0.5547150000054389
6,87,bias,0,0,0.24631000000238415
6,88,bias,1,1,0.7618349999971687
6,89,bias,1,1,1.9869550000010057
6,90,bias,0,1,2.031484999999404
6,91,bias,1,1,0.3687250000080094
6,92,bias,1,1,0.2104499999983236
6,93,bias,1,0,1.003745000009425
6,94,bias,0,1,0.8924250000128523
6,95,bias,1,1,0.6354299999950453
6,96,bias,0,1,0.6671300000017509
6,49,no_bias,1,1,3.3895699999993667
6,50,no_bias,0,1,0.5942950000017881
6,51,no_bias,1,1,0.9331150000067427
6,52,no_bias,1,1,0.8409600000008941
6,53,no_bias,1,1,1.098144999996759
6,55,no_bias,0,0,0.7366749999923632
6,56,no_bias,1,1,0.5090150000033901
6,57,no_bias,0,1,0.9560499999932944
6,58,no_bias,0,1,1.4091137500000186
6,59,no_bias,0,1,1.5645150000052528
6,60,no_bias,0,1,1.8549000000059608
6,61,no_bias,0,1,0.7068600000059232
6,62,no_bias,1,1,0.6415149999959394
6,63,no_bias,0,1,0.8881600000029429
6,64,no_bias,0,1,0.5620099999941885
6,65,no_bias,0,1,0.7407300000051037
6,66,no_bias,1,1,0.7837149999979883
6,67,no_bias,1,1,0.6966349999997765
6,68,no_bias,1,1,0.7216199999963865
6,69,no_bias,1,1,0.9572500000074504
6,70,no_bias,1,0,0.1599350000033155
6,71,no_bias,1,0,0.6027549999998882
6,72,no_bias,0,1,1.1545899999905378
6,73,no_bias,0,1,0.5528049999987706
6,74,no_bias,0,1,1.0504349999967966
6,75,no_bias,1,1,0.7402550000110641
6,76,no_bias,0,1,0.9269999999962748
6,77,no_bias,1,0,1.1570849999990314
6,78,no_bias,1,1,0.6294150000037625
6,79,no_bias,0,1,0.7127549999998882
6,80,no_bias,1,1,0.8882500000037253
6,81,no_bias,1,1,0.7621599999982863
6,82,no_bias,1,1,1.6576599999973551
6,83,no_bias,0,1,0.6045850000083447
6,84,no_bias,0,1,0.6637350000096485
6,85,no_bias,0,1,0.8117749999947846
6,86,no_bias,0,1,0.9736350000025704
6,87,no_bias,1,0,0.5650200000088662
6,88,no_bias,1,1,0.7795250000050291
6,89,no_bias,0,1,0.7586250000018626
6,90,no_bias,1,1,0.7753499999959022
6,91,no_bias,1,1,0.9839099999954924
6,92,no_bias,0,1,0.7681600000066683
6,93,no_bias,1,1,0.8423500000061467
6,94,no_bias,0,1,0.4799950000019744
6,95,no_bias,1,0,0.9930949999978764
6,96,no_bias,0,1,0.9009300000034272
6,97,bias,0,1,1.6752849999899044
6,98,bias,1,1,0.7302050000000745
6,99,bias,1,1,0.7488250000029802
6,100,bias,1,1,0.5365900000035763
6,101,bias,0,1,0.7442799999993295
6,102,bias,1,1,0.5634549999954179
6,103,bias,0,1,1.065849999998696
6,104,bias,0,1,0.6808549999985843
6,105,bias,1,1,0.8606500000031665
6,106,bias,1,1,1.7030099999979138
6,107,bias,1,1,0.931624999997206
6,108,bias,1,1,1.4784099999964235
6,109,bias,0,1,0.8712950000036508
6,110,bias,0,1,0.6712050000056624
6,111,bias,0,1,1.1136649999972432
6,112,bias,0,1,1.068710000006482
6,113,bias,1,1,1.2927950000017878
6,114,bias,1,1,1.336875000008382
6,115,bias,0,1,1.1699050000030546
6,116,bias,1,1,0.8445500000091269
6,117,bias,0,1,1.0479699999997392
6,118,bias,0,1,1.45615500000678
6,119,bias,1,1,1.738274999995716
6,120,bias,0,1,2.049739999987185
6,97,no_bias,0,1,2.462060000005178
6,98,no_bias,0,1,3.0427349999947473
6,99,no_bias,1,1,1.6150500000081955
6,100,no_bias,1,1,0.9393299999944864
6,101,no_bias,1,1,0.6282849999992177
6,102,no_bias,1,0,1.7380600000033155
6,103,no_bias,0,1,0.8320499999970198
6,104,no_bias,1,0,1.2030950000043958
6,105,no_bias,1,0,0.8321750000035391
6,106,no_bias,1,0,0.6471900000032037
6,107,no_bias,0,1,0.6615299999974668
6,108,no_bias,0,1,0.7385099999960512
6,109,no_bias,1,1,0.6021899999901652
6,110,no_bias,0,1,1.1097799999993294
6,111,no_bias,0,1,0.6822499999981374
6,112,no_bias,1,1,0.6789350000033155
6,113,no_bias,1,1,1.1991450000060722
6,114,no_bias,0,1,0.6382900000028312
6,115,no_bias,0,1,0.41228000000398607
6,116,no_bias,0,1,0.6224050000011921
6,117,no_bias,1,0,0.6335900000119582
6,118,no_bias,0,1,0.11656500000413508
6,119,no_bias,1,0,0.46981500000413506
6,120,no_bias,0,1,0.5278350000008941
6,121,bias,0,1,1.6958999999919906
6,122,bias,0,1,1.500524999995716
6,123,bias,0,1,2.3441100000049917
6,124,bias,0,1,1.3819999999981374
6,125,bias,1,1,0.9749900000030176
6,126,bias,1,1,0.8845449999934062
6,127,bias,1,1,1.806485000007786
6,128,bias,1,1,1.4310899999979882
6,129,bias,1,0,1.29350500000827
6,130,bias,0,1,1.468665000007488
6,131,bias,1,1,0.7355950000053272
6,132,bias,0,1,0.8553200000030919
6,133,bias,0,1,1.750014999997802
6,134,bias,0,1,0.708089999999851
6,135,bias,1,1,0.760105000008829
6,136,bias,0,1,1.0129900000030176
6,137,bias,1,1,0.7486249999934808
6,138,bias,1,1,2.0656000000014902
6,139,bias,0,1,0.9821000000089408
6,140,bias,0,1,2.475969999999739
6,141,bias,1,1,2.054109999997541
6,142,bias,0,1,2.228125000008382
6,143,bias,1,1,1.033379999993369
6,144,bias,1,0,1.4833699999870733
6,121,no_bias,0,1,2.502309999995865
6,122,no_bias,1,1,0.6131100000049919
6,123,no_bias,0,1,1.2051050000013783
6,124,no_bias,1,1,0.13409500000160188
6,125,no_bias,0,1,0.5889299999978393
6,126,no_bias,1,1,0.6196049999995157
6,127,no_bias,0,1,1.025745000006631
6,128,no_bias,0,1,2.9430549999959768
6,129,no_bias,1,0,1.8366499999975785
6,130,no_bias,1,0,1.2771400000052529
6,131,no_bias,1,1,1.605804999998771
6,132,no_bias,0,1,2.730664999996312
6,133,no_bias,0,1,0.8218600000105798
6,134,no_bias,0,1,0.6674850000124425
6,135,no_bias,1,0,0.6861249999925494
6,136,no_bias,1,0,1.0713149999929592
6,137,no_bias,0,1,1.769670000009239
6,138,no_bias,1,0,0.6849599999981001
6,139,no_bias,0,1,0.6753400000017137
6,140,no_bias,1,1,0.6854450000105425
6,141,no_bias,0,1,0.78476500000339
6,142,no_bias,1,1,0.610159999997355
6,143,no_bias,0,1,0.8764949999889359
6,144,no_bias,1,0,0.6925399999888614
7,1,bias,0,1,0.8273999999761581
7,2,bias,1,1,0.626
7,3,bias,0,1,0.5087000000476837
7,4,bias,0,1,1.3757000000476836
7,5,bias,0,1,0.604
7,6,bias,1,0,0.42909999990463255
7,7,bias,0,0,1.4147999999523164
7,8,bias,1,1,0.4218999999761581
7,9,bias,0,0,0.5113999999761581
7,10,bias,1,1,0.7155
7,11,bias,1,1,0.5506000000238419
7,12,bias,0,1,0.381
7,13,bias,1,1,0.40560000002384183
7,14,bias,0,1,0.4401999999284744
7,15,bias,1,1,0.6617000000476837
7,16,bias,1,1,0.3507999999523163
7,17,bias,1,1,0.3697999999523162
7,18,bias,0,0,0.423
7,19,bias,1,1,0.3713000000715256
7,20,bias,1,1,0.48060000002384184
7,21,bias,0,1,0.3297999999523163
7,22,bias,0,1,0.5626000000238418
7,23,bias,1,1,0.37059999990463255
7,24,bias,0,1,0.40560000002384183
7,1,no_bias,0,1,1.2171999999284744
7,2,no_bias,1,1,0.23809999990463257
7,3,no_bias,0,1,0.2618000000715256
7,4,no_bias,1,1,0.2860999999046326
7,5,no_bias,0,1,0.4372000000476837
7,6,no_bias,0,1,0.1757000000476837
7,7,no_bias,0,1,0.34639999997615817
7,8,no_bias,1,1,0.178
7,9,no_bias,1,1,0.22340000009536745
7,10,no_bias,0,1,0.2644000000953674
7,11,no_bias,1,1,0.1
7,12,no_bias,1,1,0.2726000000238419
7,13,no_bias,0,1,0.3621999999284744
7,14,no_bias,0,0,0.5383000000715256
7,15,no_bias,0,1,0.3875
7,16,no_bias,1,1,0.46610000002384183
7,17,no_bias,0,1,0.46039999997615816
7,18,no_bias,0,1,0.638
7,19,no_bias,1,0,0.3483999999761581
7,20,no_bias,0,1,0.3676999999284744
7,21,no_bias,1,1,0.26070000004768373
7,22,no_bias,1,1,0.20409999990463257
7,23,no_bias,1,1,0.29510000002384185
7,24,no_bias,1,1,1.1107999999523166
7,25,bias,1,1,1.255100000023842
7,26,bias,1,1,0.35
7,27,bias,1,1,0.46839999997615817
7,28,bias,1,1,0.4603000000715255
7,29,bias,0,1,0.28319999992847444
7,30,bias,1,1,0.2757000000476837
7,31,bias,0,1,1.0962000000476837
7,32,bias,0,1,1.0628000000715256
7,33,bias,0,1,0.5182000000476837
7,34,bias,1,1,0.333
7,35,bias,0,1,0.7063999999761581
7,36,bias,0,1,0.4243999999761581
7,37,bias,0,1,0.76
7,38,bias,0,0,0.7081000000238419
7,39,bias,1,1,0.2716000000238419
7,40,bias,1,1,0.3947999999523163
7,41,bias,0,1,0.3293000000715256
7,42,bias,0,1,0.39839999997615816
7,43,bias,1,1,0.4893999999761582
7,44,bias,0,0,0.7301000000238419
7,45,bias,0,1,0.32010000002384187
7,46,bias,1,1,0.37239999997615814
7,47,bias,1,1,0.5637999999523163
7,48,bias,1,0,0.41960000002384185
7,25,no_bias,1,0,2.694099999904633
7,26,no_bias,0,1,0.5197999999523163
7,27,no_bias,0,1,0.7615999999046326
7,28,no_bias,0,1,0.4556000000238419
7,29,no_bias,1,1,0.5831999999284744
7,30,no_bias,0,1,1.2432000000476835
7,31,no_bias,1,1,2.332600000023842
7,32,no_bias,0,1,0.856
7,33,no_bias,1,1,0.36379999995231627
7,34,no_bias,0,0,0.605
7,35,no_bias,1,1,0.32819999992847443
7,36,no_bias,1,1,0.5948999999761582
7,37,no_bias,0,0,0.5582000000476837
7,38,no_bias,1,0,0.2611999999284744
7,39,no_bias,0,1,0.7170999999046326
7,40,no_bias,0,0,1.0765
7,41,no_bias,0,1,0.3012000000476837
7,42,no_bias,1,1,0.3808000000715256
7,43,no_bias,1,1,0.5145
7,44,no_bias,1,1,0.12560000002384186
7,45,no_bias,0,1,0.4255
7,46,no_bias,1,1,0.2756000000238419
7,47,no_bias,1,1,0.22110000002384184
7,48,no_bias,0,1,0.20939999997615816
7,49,bias,1,1,3.5955
7,50,bias,1,1,0.34960000002384184
7,51,bias,1,1,0.3178000000715256
7,52,bias,0,1,0.7937000000476837
7,53,bias,1,1,0.346
7,54,bias,1,1,0.29380000007152557
7,55,bias,0,1,0.5941000000238419
7,56,bias,0,1,0.6545
7,57,bias,0,1,0.4082000000476837
7,58,bias,1,1,0.31720000004768373
7,59,bias,0,1,0.5697000000476837
7,60,bias,0,0,0.6323000000715255
7,61,bias,1,1,0.4377000000476837
7,62,bias,0,1,1.949899999976158
7,63,bias,1,1,0.2858999999761581
7,64,bias,0,0,0.4471000000238418
7,65,bias,1,1,0.5523000000715256
7,66,bias,0,1,0.339
7,67,bias,1,1,0.3395
7,68,bias,0,1,0.5855
7,69,bias,1,1,0.13539999997615815
7,70,bias,1,1,0.2852999999523163
7,71,bias,0,1,0.5231999999284744
7,72,bias,0,1,0.7282999999523163
7,49,no_bias,1,1,0.3558999999761581
7,50,no_bias,0,1,0.433
7,51,no_bias,0,1,0.8298999999761582
7,52,no_bias,0,1,0.4312000000476837
7,53,no_bias,0,1,0.8415
7,54,no_bias,0,1,0.5206000000238419
7,55,no_bias,1,1,0.34689999997615817
7,56,no_bias,0,1,0.8716999999284745
7,57,no_bias,1,1,0.263
7,58,no_bias,0,0,0.8477000000476838
7,59,no_bias,0,0,0.6698999999761581
7,60,no_bias,0,1,0.49060000002384185
7,61,no_bias,1,1,0.29079999995231626
7,62,no_bias,1,1,0.4782000000476837
7,63,no_bias,1,1,0.49029999995231627
7,64,no_bias,0,0,0.45389999997615815
7,65,no_bias,1,1,0.4926999999284744
7,66,no_bias,1,0,0.3148000000715256
7,67,no_bias,1,1,0.2827999999523163
7,68,no_bias,1,1,0.26969999992847443
7,69,no_bias,1,1,0.5231000000238418
7,70,no_bias,1,0,0.6161999999284744
7,71,no_bias,0,1,0.5163999999761582
7,72,no_bias,0,1,1.031
7,73,bias,1,1,0.7117999999523162
7,74,bias,1,1,0.35960000002384185
7,75,bias,0,1,0.5393999999761582
7,76,bias,0,1,0.5596000000238418
7,77,bias,0,1,0.5912999999523163
7,78,bias,1,1,0.25359999990463256
7,79,bias,1,1,0.8428999999761582
7,80,bias,0,1,0.43660000002384186
7,81,bias,0,0,0.4367999999523163
7,82,bias,0,1,0.5096000000238419
7,83,bias,1,0,1.132100000023842
7,84,bias,0,1,0.45620000004768374
7,85,bias,0,1,0.557
7,86,bias,1,1,0.34239999997615816
7,87,bias,1,1,0.3697999999523162
7,88,bias,1,1,0.35660000002384185
7,89,bias,0,0,0.5453999999761582
7,90,bias,1,1,0.2817999999523163
7,91,bias,1,1,0.29160000002384184
7,92,bias,1,1,0.5678000000715255
7,93,bias,0,1,0.4863999999761581
7,94,bias,0,1,0.4422999999523163
7,95,bias,0,1,0.5468000000715256
7,96,bias,1,1,0.686
7,97,bias,1,1,0.35210000002384184
7,98,bias,1,1,0.35479999995231626
7,99,bias,0,1,0.349
7,100,bias,1,1,0.2032999999523163
7,101,bias,0,1,0.37189999997615814
7,102,bias,1,1,0.3835
7,103,bias,1,1,0.3623999999761581
7,104,bias,0,1,0.5047000000476837
7,105,bias,1,1,0.2860999999046326
7,106,bias,1,1,0.1755
7,107,bias,1,1,0.2732000000476837
7,108,bias,1,1,0.33930000007152555
7,109,bias,1,1,0.185
7,110,bias,0,0,0.3623999999761581
7,111,bias,1,1,0.1327000000476837
7,112,bias,1,1,0.31239999997615814
7,113,bias,0,1,0.45989999997615816
7,114,bias,0,1,0.43839999997615814
7,115,bias,0,1,0.5636000000238418
7,116,bias,0,0,0.6216000000238419
7,117,bias,0,1,0.29480000007152557
7,118,bias,0,1,0.5551000000238419
7,119,bias,0,1,0.425
7,120,bias,0,1,0.4004000000953674
7,73,no_bias,0,1,1.2342000000476836
7,74,no_bias,0,1,0.31439999997615814
7,75,no_bias,0,1,0.3543999999761581
7,76,no_bias,0,1,0.49510000002384186
7,77,no_bias,1,1,0.3407999999523163
7,78,no_bias,0,1,0.44689999997615815
7,79,no_bias,0,1,0.5668999999761581
7,80,no_bias,1,1,0.5627999999523163
7,81,no_bias,1,1,0.33469999992847443
7,82,no_bias,1,1,0.2627999999523163
7,83,no_bias,1,1,0.19790000009536743
7,84,no_bias,1,1,0.38089999997615814
7,85,no_bias,0,0,0.6007000000476838
7,86,no_bias,0,1,0.378
7,87,no_bias,0,0,0.473
7,89,no_bias,1,1,0.2802000000476837
7,90,no_bias,1,1,0.3066999999284744
7,91,no_bias,0,1,0.5174000000953675
7,92,no_bias,1,1,0.3123000000715256
7,93,no_bias,0,1,0.4795999999046326
7,94,no_bias,0,1,0.35360000002384184
7,95,no_bias,1,0,0.6296000000238419
7,96,no_bias,1,1,0.517
7,97,no_bias,1,1,0.8443000000715256
7,98,no_bias,0,1,0.3465999999046326
7,99,no_bias,1,1,0.3216999999284744
7,100,no_bias,1,1,0.21070000004768372
7,101,no_bias,0,1,0.43260000002384186
7,102,no_bias,1,1,0.2148000000715256
7,103,no_bias,1,1,0.31970000004768373
7,104,no_bias,1,1,0.22760000002384184
7,105,no_bias,1,1,0.31660000002384187
7,106,no_bias,1,1,0.30229999995231627
7,107,no_bias,0,1,0.3687000000476837
7,108,no_bias,0,1,0.3845
7,109,no_bias,1,1,0.2158000000715256
7,110,no_bias,0,0,0.5807999999523162
7,111,no_bias,1,1,0.5024000000953674
7,112,no_bias,0,1,0.5026000000238419
7,113,no_bias,1,0,0.716
7,114,no_bias,0,1,0.6035
7,115,no_bias,0,1,0.4795
7,116,no_bias,0,1,0.8595
7,117,no_bias,0,1,0.6795999999046326
7,118,no_bias,1,1,0.3585
7,119,no_bias,0,1,1.092600000023842
7,120,no_bias,0,1,0.5425
7,121,no_bias,1,1,0.11180000007152556
7,122,no_bias,1,1,0.4846999999284744
7,123,no_bias,1,1,0.335
7,124,no_bias,0,1,0.6655
7,125,no_bias,0,1,0.6686000000238419
7,126,no_bias,1,1,0.34580000007152556
7,127,no_bias,1,1,0.37310000002384186
7,129,no_bias,0,1,0.35260000002384184
7,130,no_bias,1,1,0.27280000007152555
7,131,no_bias,0,1,0.3125
7,132,no_bias,0,1,0.3936999999284744
7,133,no_bias,1,1,0.39320000004768374
7,134,no_bias,0,1,0.42960000002384185
7,135,no_bias,0,1,0.3296000000238419
7,137,no_bias,1,1,0.23289999997615815
7,138,no_bias,0,1,0.3215
7,139,no_bias,0,0,0.7121000000238419
7,140,no_bias,1,1,0.282
7,141,no_bias,0,1,0.6318999999761581
7,142,no_bias,1,1,0.2878999999761581
7,143,no_bias,0,1,0.3656999999284744
7,144,no_bias,0,0,0.5212000000476837
7,121,bias,0,1,1.3227000000476834
7,122,bias,0,1,0.43
7,123,bias,0,0,0.777
7,124,bias,1,1,0.5092000000476837
7,125,bias,0,1,0.37240000009536744
7,126,bias,0,1,0.3987000000476837
7,127,bias,1,1,0.15390000009536745
7,128,bias,0,1,0.6028000000715256
7,129,bias,1,1,0.3417000000476837
7,130,bias,0,1,0.3167000000476837
7,131,bias,1,1,0.25470000004768373
7,132,bias,1,1,0.30079999995231627
7,133,bias,1,1,0.4251999999284744
7,134,bias,1,1,0.24369999992847444
7,135,bias,0,0,0.6151000000238419
7,136,bias,0,1,0.3475
7,137,bias,1,1,0.3147000000476837
7,138,bias,1,1,0.468
7,139,bias,1,1,0.30460000002384185
7,140,bias,0,1,0.41310000002384184
7,141,bias,0,1,0.5315
7,142,bias,0,1,0.5081999999284744
7,143,bias,1,1,0.21689999997615816
7,144,bias,1,1,0.3876000000238419
9,1,bias,1,1,1.4692999999523164
9,2,bias,0,1,1.5748999998569488
9,3,bias,1,1,1.220300000190735
9,4,bias,0,0,1.9193999998569489
9,5,bias,0,1,0.30779999995231627
9,6,bias,1,0,0.4605
9,7,bias,1,1,0.85
9,8,bias,0,1,1.0759000000953671
9,9,bias,0,1,0.7494000000953674
9,10,bias,0,1,0.4978999998569488
9,11,bias,1,0,0.7668000001907349
9,12,bias,1,0,0.3984000000953674
9,13,bias,1,1,0.8916000001430512
9,14,bias,0,1,0.7742999999523162
9,15,bias,0,1,0.40719999980926513
9,16,bias,0,1,0.5017999999523163
9,17,bias,1,0,0.11029999995231628
9,18,bias,1,1,0.7402999999523163
9,19,bias,0,1,0.6797999999523163
9,20,bias,1,0,0.571
9,21,bias,1,0,0.7046999998092651
9,22,bias,1,1,0.9823999998569488
9,23,bias,0,1,0.7114000000953674
9,24,bias,0,1,0.36840000009536744
9,1,no_bias,1,1,1.1018999998569488
9,2,no_bias,0,1,1.1732999999523166
9,3,no_bias,1,0,0.8490999999046326
9,4,no_bias,0,1,0.8067000000476837
9,5,no_bias,1,0,0.8331999998092652
9,6,no_bias,0,1,0.5515
9,7,no_bias,1,0,0.57
9,8,no_bias,0,1,0.39020000004768374
9,9,no_bias,1,0,0.6181000001430511
9,10,no_bias,0,1,0.35119999980926514
9,11,no_bias,1,0,0.46960000014305114
9,12,no_bias,1,1,0.7556000001430512
9,13,no_bias,0,1,0.5687000000476837
9,14,no_bias,0,1,0.564
9,15,no_bias,0,1,0.7457999999523163
9,16,no_bias,0,1,0.408
9,17,no_bias,0,1,0.5177999999523163
9,18,no_bias,0,1,0.5227000000476837
9,19,no_bias,1,1,0.9737000000476836
9,20,no_bias,1,1,0.6607999999523163
9,21,no_bias,1,0,0.675
9,22,no_bias,0,1,0.5103999998569488
9,23,no_bias,1,1,0.6717000000476837
9,24,no_bias,1,0,0.9521000001430512
9,25,bias,1,0,0.9034000000953676
9,26,bias,0,1,0.6955
9,27,bias,1,0,0.7065999999046325
9,28,bias,0,1,0.5478999998569488
9,29,bias,1,0,0.6462999999523162
9,30,bias,0,1,0.5091000001430511
9,31,bias,1,0,0.5767999999523162
9,32,bias,0,1,0.4707999999523163
9,33,bias,1,0,0.6297999999523163
9,34,bias,0,1,0.465
9,35,bias,1,0,0.4610999999046326
9,36,bias,1,0,0.6074000000953674
9,37,bias,0,1,0.43709999990463255
9,38,bias,0,1,0.3942999999523163
9,39,bias,0,1,0.5906000001430511
9,40,bias,1,0,0.3748999998569488
9,41,bias,1,0,0.8834000000953675
9,42,bias,1,0,0.38609999990463256
9,43,bias,0,1,0.3853000001907349
9,44,bias,1,0,0.4291000001430512
9,45,bias,0,1,0.4917000000476837
9,46,bias,0,1,0.3813000001907349
9,47,bias,1,0,0.4037000000476837
9,48,bias,0,1,0.5457000000476837
9,49,bias,1,1,1.1422000000476835
9,50,bias,1,1,0.5722999999523163
9,51,bias,0,1,0.6345
9,52,bias,0,1,0.439
9,53,bias,0,1,0.4507999999523163
9,54,bias,1,0,1.5827999999523166
9,55,bias,1,0,0.5721999998092652
9,56,bias,0,1,0.5503000001907349
9,57,bias,0,1,0.4565
9,58,bias,0,1,0.5216000001430512
9,59,bias,0,1,0.4405
9,60,bias,0,1,0.4217000000476837
9,61,bias,1,1,0.6273999998569488
9,62,bias,0,1,0.5615999999046326
9,63,bias,1,0,0.5815
9,64,bias,1,0,0.4175999999046326
9,65,bias,1,0,0.6869000000953674
9,66,bias,1,1,1.1542999999523165
9,67,bias,0,1,0.732
9,68,bias,1,0,0.8295999999046326
9,69,bias,1,1,0.7797999999523163
9,70,bias,0,1,0.6376000001430512
9,71,bias,0,1,0.5925
9,72,bias,1,0,0.7272000000476837
9,25,no_bias,1,1,0.9429000000953676
9,26,no_bias,1,1,0.8946000001430512
9,27,no_bias,0,1,1.1082999999523164
9,28,no_bias,1,1,0.6590999999046325
9,29,no_bias,1,1,0.5566000001430511
9,30,no_bias,0,0,0.4777000000476837
9,31,no_bias,1,1,0.4301000001430512
9,32,no_bias,0,0,0.6516000001430512
9,33,no_bias,1,1,0.7017000000476837
9,34,no_bias,0,1,0.6672999999523163
9,35,no_bias,0,0,0.6309000000953674
9,36,no_bias,0,1,0.5317000000476837
9,37,no_bias,1,1,0.7342000000476837
9,38,no_bias,0,1,0.7281000001430511
9,39,no_bias,1,0,0.6502000000476837
9,40,no_bias,0,1,0.6362999999523162
9,41,no_bias,0,1,0.7723000001907349
9,42,no_bias,1,1,0.5165
9,43,no_bias,0,1,0.6420999999046326
9,44,no_bias,0,1,0.9045999999046326
9,45,no_bias,1,0,0.6193999998569488
9,46,no_bias,1,1,0.6492000000476837
9,47,no_bias,0,0,2.6037000000476835
9,48,no_bias,1,1,0.43209999990463255
9,50,no_bias,1,1,1.2692000000476835
9,51,no_bias,0,1,0.8501000001430511
9,52,no_bias,0,1,1.031
9,53,no_bias,0,1,0.97
9,54,no_bias,1,1,0.5975
9,55,no_bias,1,1,0.6562000000476838
9,56,no_bias,1,1,0.6985
9,57,no_bias,1,1,0.6213999998569488
9,58,no_bias,0,1,0.6944000000953674
9,59,no_bias,0,1,0.742
9,60,no_bias,0,1,0.8615
9,61,no_bias,1,0,0.6112000000476837
9,62,no_bias,0,1,0.7450999999046326
9,63,no_bias,0,1,0.3662000000476837
9,64,no_bias,1,0,0.9498999998569488
9,65,no_bias,0,1,0.5972999999523163
9,66,no_bias,0,1,0.5396000001430511
9,67,no_bias,0,1,0.6111999998092651
9,68,no_bias,1,1,0.7371999998092651
9,69,no_bias,0,1,0.4650999999046326
9,70,no_bias,1,1,0.7410999999046326
9,71,no_bias,1,0,0.5488000001907348
9,72,no_bias,1,1,0.7410999999046326
9,73,bias,0,1,1.3119000000953671
9,74,bias,1,0,1.0221000001430511
9,75,bias,0,1,0.38040000009536745
9,76,bias,0,1,0.48229999995231626
9,77,bias,0,1,0.5256999998092652
9,78,bias,0,1,0.32320000004768373
9,79,bias,1,1,1.0667999999523166
9,80,bias,0,1,0.5179000000953674
9,81,bias,1,1,1.2042000000476836
9,82,bias,1,1,0.695
9,83,bias,0,0,0.926
9,84,bias,1,1,0.6608999998569488
9,85,bias,0,1,0.8400999999046326
9,86,bias,1,1,0.6533999998569489
9,87,bias,1,1,0.9981999998092652
9,88,bias,0,1,0.7345
9,89,bias,1,1,0.8274000000953674
9,90,bias,1,1,0.7281999998092651
9,91,bias,0,1,0.8665
9,92,bias,1,1,0.7106000001430511
9,93,bias,0,1,0.8785
9,94,bias,1,1,0.4085
9,95,bias,1,1,0.5908999998569489
9,96,bias,0,1,0.6755
9,73,no_bias,1,0,0.9785
9,74,no_bias,1,1,0.9586000001430512
9,75,no_bias,0,1,0.6389000000953674
9,76,no_bias,0,1,0.3807000000476838
9,77,no_bias,0,1,0.4453999998569488
9,78,no_bias,1,0,0.6528999998569488
9,79,no_bias,0,1,0.48389999985694887
9,80,no_bias,0,1,0.4397999999523163
9,81,no_bias,0,1,0.4356000001430512
9,82,no_bias,0,1,0.3967999999523163
9,83,no_bias,0,1,0.427
9,84,no_bias,1,1,0.7289000000953675
9,85,no_bias,1,1,0.5105999999046326
9,86,no_bias,1,1,0.5577000000476837
9,87,no_bias,1,0,0.408
9,88,no_bias,1,1,0.6160999999046326
9,89,no_bias,0,1,0.46569999980926513
9,90,no_bias,1,1,1.084
9,91,no_bias,1,1,0.7267999999523163
9,92,no_bias,1,1,0.5750999999046326
9,93,no_bias,0,1,0.6215
9,94,no_bias,1,0,0.6594000000953675
9,95,no_bias,0,1,0.447
9,96,no_bias,0,1,0.7889000000953674
9,97,no_bias,0,1,0.667
9,98,no_bias,1,1,0.4418999998569488
9,99,no_bias,0,1,0.4598999998569489
9,100,no_bias,0,1,0.401
9,101,no_bias,1,1,0.6767999999523163
9,102,no_bias,0,1,0.5842000000476837
9,103,no_bias,0,1,0.7807999999523163
9,104,no_bias,1,1,0.9137999999523164
9,105,no_bias,1,1,0.5167999999523163
9,106,no_bias,0,0,0.7482000000476837
9,107,no_bias,1,1,0.6497999999523163
9,108,no_bias,0,0,0.5678999998569488
9,109,no_bias,1,1,0.5205999999046326
9,110,no_bias,0,1,0.5752999999523163
9,111,no_bias,1,1,0.37440000009536745
9,112,no_bias,0,1,0.5625
9,113,no_bias,1,1,0.7851999998092651
9,114,no_bias,1,1,0.7295
9,115,no_bias,0,1,0.5900999999046326
9,116,no_bias,0,1,0.5277000000476837
9,117,no_bias,1,1,0.7471000001430511
9,118,no_bias,0,1,0.5041999998092651
9,119,no_bias,1,1,0.4600999999046326
9,120,no_bias,1,1,0.48329999995231626
9,97,bias,1,1,0.7332999999523163
9,98,bias,1,1,0.388
9,99,bias,0,1,2.1847999999523164
9,100,bias,0,1,0.7347000000476838
9,101,bias,1,1,0.9976000001430512
9,102,bias,0,1,1.3542999999523164
9,103,bias,0,1,0.40669999980926513
9,104,bias,0,1,0.5770999999046326
9,105,bias,0,1,0.6647999999523163
9,106,bias,0,1,0.35490000009536743
9,107,bias,0,1,0.5437999999523163
9,108,bias,1,1,0.85
9,109,bias,0,1,0.3653999998569489
9,110,bias,1,1,0.8292000000476837
9,111,bias,1,1,0.6723999998569489
9,112,bias,0,1,0.6515
9,113,bias,0,1,0.5442000000476838
9,114,bias,1,1,0.8952000000476837
9,115,bias,0,1,0.6681000001430512
9,116,bias,1,1,0.8302000000476837
9,117,bias,1,1,1.7513000001907348
9,118,bias,1,1,0.5004000000953674
9,119,bias,1,1,0.3625
9,120,bias,1,1,0.8910999999046326
9,121,no_bias,1,1,0.6585999999046326
9,122,no_bias,0,1,0.8506999998092651
9,123,no_bias,1,1,0.5822000000476837
9,124,no_bias,0,1,0.8615
9,125,no_bias,0,1,0.837
9,126,no_bias,0,1,0.579
9,127,no_bias,1,1,0.7497000000476837
9,128,no_bias,0,1,0.4139000000953674
9,129,no_bias,0,1,0.5415
9,130,no_bias,1,1,0.8435999999046325
9,131,no_bias,0,1,0.5865
9,132,no_bias,1,1,0.573
9,133,no_bias,0,1,1.2619000000953675
9,134,no_bias,1,1,3.374800000190735
9,135,no_bias,1,1,0.5801000001430512
9,136,no_bias,1,0,0.6989000000953675
9,137,no_bias,1,1,0.5977000000476838
9,138,no_bias,0,1,0.6663000001907349
9,139,no_bias,1,1,1.0300999999046323
9,140,no_bias,1,1,0.6077000000476838
9,141,no_bias,0,0,1.4630999999046326
9,142,no_bias,0,1,0.7099000000953675
9,143,no_bias,1,1,1.1655
9,144,no_bias,0,1,1.3758999998569488
9,121,bias,0,1,1.8784000000953671
9,122,bias,1,0,1.4293999998569489
9,123,bias,0,1,0.48329999995231626
9,124,bias,0,1,0.565
9,125,bias,0,1,0.33109999990463257
9,126,bias,1,0,0.5035
9,127,bias,1,0,0.6350999999046326
9,128,bias,0,1,0.48229999995231626
9,129,bias,1,0,0.3848999998569488
9,130,bias,0,1,0.5442999999523163
9,131,bias,0,1,0.5619000000953674
9,132,bias,1,0,0.4312000000476837
9,133,bias,0,1,0.3777000000476837
9,134,bias,1,0,0.6726000001430511
9,135,bias,1,0,0.5372999999523163
9,136,bias,0,1,0.4697000000476837
9,137,bias,1,0,0.6357999999523163
9,138,bias,1,0,1.661800000190735
9,139,bias,0,1,0.5846000001430511
9,140,bias,1,0,0.4167000000476837
9,141,bias,0,1,0.4845
9,142,bias,1,0,0.3991999998092651
9,143,bias,0,1,0.412
9,144,bias,1,0,0.4902000000476837
12,2,no_bias,0,0,0.5132999999523162
12,3,no_bias,0,1,0.34510000002384184
12,4,no_bias,0,0,0.287
12,5,no_bias,1,1,0.6840999999046325
12,6,no_bias,1,1,0.5471000000238418
12,7,no_bias,1,0,0.37360000002384186
12,8,no_bias,0,1,0.37839999997615814
12,9,no_bias,1,1,0.3315
12,10,no_bias,0,1,0.5381000000238418
12,11,no_bias,1,1,0.44939999997615815
12,12,no_bias,0,1,0.6143999999761581
12,14,no_bias,0,0,0.39380000007152555
12,15,no_bias,0,0,0.4567999999523163
12,16,no_bias,0,0,0.3281000000238419
12,17,no_bias,1,1,0.33489999997615816
12,18,no_bias,1,0,0.8713000000715255
12,19,no_bias,1,1,0.3287999999523163
12,20,no_bias,1,1,0.1565
12,21,no_bias,0,1,0.3143000000715256
12,22,no_bias,1,1,0.3335
12,23,no_bias,1,0,0.369
12,24,no_bias,0,0,0.27889999997615816
12,1,bias,0,0,1.4711999999284744
12,2,bias,0,0,0.3142000000476837
12,3,bias,0,1,0.33889999997615816
12,4,bias,1,1,0.27689999997615816
12,5,bias,0,0,0.13429999995231628
12,6,bias,0,0,0.43490000009536744
12,7,bias,1,1,0.2752000000476837
12,8,bias,1,1,0.314
12,9,bias,1,1,0.3361000000238419
12,11,bias,0,1,0.23489999997615815
12,12,bias,0,0,0.3758000000715256
12,14,bias,0,0,0.2958999999761581
12,15,bias,1,1,0.34139999997615816
12,16,bias,1,1,0.3187999999523163
12,17,bias,0,0,0.31560000002384186
12,18,bias,1,1,0.1875
12,19,bias,1,1,0.2686000000238419
12,20,bias,1,1,0.3325
12,21,bias,0,1,0.35619999992847445
12,22,bias,0,1,0.3196999999284744
12,24,bias,1,1,0.32139999997615815
12,25,bias,1,1,0.9297999999523164
12,26,bias,0,0,0.3286000000238419
12,27,bias,1,1,1.400899999976158
12,28,bias,0,0,0.3766999999284744
12,29,bias,1,1,0.31689999997615814
12,30,bias,1,1,0.3771999999284744
12,31,bias,1,1,0.3256000000238419
12,32,bias,1,1,0.337
12,33,bias,0,1,0.3712000000476837
12,34,bias,0,1,0.5362999999523163
12,35,bias,0,1,0.3258000000715256
12,36,bias,1,1,0.15689999997615814
12,37,bias,1,1,0.404
12,38,bias,0,1,2.8715
12,39,bias,0,0,0.40189999997615816
12,40,bias,1,1,0.3672999999523162
12,41,bias,0,0,0.6295
12,42,bias,1,1,0.40439999997615816
12,43,bias,0,1,0.6045999999046325
12,44,bias,1,1,0.3465
12,45,bias,0,1,0.3792000000476837
12,46,bias,0,1,0.3846999999284744
12,47,bias,0,0,0.3417000000476837
12,48,bias,1,1,0.316
12,25,no_bias,0,0,1.0605
12,26,no_bias,1,1,0.34130000007152556
12,27,no_bias,1,0,0.241
12,28,no_bias,0,0,0.4566000000238419
12,29,no_bias,0,1,0.5161000000238418
12,30,no_bias,0,1,0.349
12,31,no_bias,1,1,0.481
12,32,no_bias,0,1,0.647
12,33,no_bias,1,1,0.49009999990463254
12,34,no_bias,1,0,1.1118999999761578
12,35,no_bias,0,1,0.4597999999523163
12,36,no_bias,1,1,0.32090000009536745
12,37,no_bias,1,1,0.377
12,38,no_bias,0,1,0.4011000000238419
12,39,no_bias,0,1,0.32889999997615815
12,40,no_bias,1,0,0.56
12,41,no_bias,1,0,0.45570000004768374
12,42,no_bias,1,0,0.32389999997615815
12,43,no_bias,0,1,0.3817000000476838
12,44,no_bias,1,0,0.3793000000715256
12,45,no_bias,0,1,0.4246999999284744
12,46,no_bias,1,0,0.35379999995231626
12,47,no_bias,0,1,0.36329999995231627
12,48,no_bias,0,1,0.327
12,49,bias,1,1,0.7063999999761581
12,50,bias,1,0,0.5756999999284744
12,51,bias,0,1,0.5148000000715256
12,52,bias,1,0,0.4712000000476837
12,53,bias,1,1,0.5617000000476837
12,54,bias,1,0,0.42
12,55,bias,1,0,0.37989999997615814
12,56,bias,0,0,0.364
12,57,bias,0,1,0.708
12,58,bias,1,1,0.37689999997615814
12,59,bias,0,1,0.4046999999284744
12,60,bias,1,1,0.5572000000476837
12,61,bias,0,1,0.6543999999761582
12,62,bias,1,0,0.5333999999761582
12,63,bias,1,1,0.4232000000476837
12,64,bias,0,1,0.31610000002384187
12,65,bias,0,0,0.42160000002384185
12,66,bias,0,0,0.5938999999761582
12,67,bias,1,0,0.6217000000476837
12,68,bias,0,0,0.5333000000715256
12,69,bias,0,1,1.0845999999046323
12,70,bias,1,0,0.2905
12,71,bias,0,0,0.4187000000476837
12,72,bias,0,0,0.7398999999761582
12,49,no_bias,0,1,2.1313000000715254
12,50,no_bias,0,1,0.346
12,51,no_bias,0,0,0.4566000000238419
12,52,no_bias,1,1,0.19530000007152556
12,53,no_bias,0,0,0.32969999992847443
12,54,no_bias,1,0,0.30579999995231627
12,55,no_bias,0,1,0.3112999999523163
12,56,no_bias,0,1,0.2583000000715256
12,57,no_bias,1,1,0.2858999999761581
12,59,no_bias,1,1,0.14739999997615813
12,60,no_bias,0,1,0.39839999997615816
12,61,no_bias,1,1,0.35269999992847445
12,63,no_bias,1,0,0.28489999997615817
12,64,no_bias,0,1,0.6663999999761582
12,65,no_bias,1,0,0.35579999995231626
12,66,no_bias,0,0,0.2731000000238419
12,67,no_bias,1,1,0.335
12,68,no_bias,0,1,0.29279999995231626
12,69,no_bias,0,1,0.27070000004768374
12,70,no_bias,1,0,0.3697999999523162
12,71,no_bias,1,1,0.3906000000238419
12,72,no_bias,1,1,0.13360000002384187
12,73,no_bias,0,0,0.18670000004768372
12,74,no_bias,0,0,0.4643000000715255
12,75,no_bias,0,0,0.3417999999523163
12,76,no_bias,0,0,0.6737999999523163
12,77,no_bias,1,0,0.7731999999284744
12,78,no_bias,1,1,0.4697999999523163
12,79,no_bias,1,1,0.3865
12,80,no_bias,1,1,0.3288000000715256
12,81,no_bias,1,1,0.3
12,82,no_bias,1,1,0.22189999997615817
12,83,no_bias,1,1,0.28189999997615817
12,84,no_bias,1,1,0.27589999997615816
12,85,no_bias,1,1,0.11860000002384186
12,86,no_bias,0,1,0.537
12,87,no_bias,0,1,0.30290000009536744
12,88,no_bias,0,0,0.4005
12,89,no_bias,0,0,0.32959999990463257
12,90,no_bias,0,1,0.24929999995231628
12,91,no_bias,0,0,0.4272000000476837
12,92,no_bias,1,1,0.28160000002384183
12,94,no_bias,1,1,0.1775
12,95,no_bias,1,0,0.49360000002384186
12,96,no_bias,0,0,0.251
12,73,bias,0,0,1.373
12,74,bias,0,0,0.21729999995231628
12,75,bias,1,1,0.4405
12,76,bias,0,0,0.285
12,77,bias,1,1,0.23609999990463257
12,78,bias,0,1,0.4017999999523163
12,79,bias,1,1,0.5058999999761581
12,80,bias,1,1,0.1845
12,82,bias,1,0,0.5608999999761581
12,83,bias,1,1,0.34080000007152556
12,84,bias,0,1,0.29490000009536743
12,85,bias,0,0,0.3425
12,86,bias,0,0,0.39520000004768374
12,87,bias,0,1,0.27239999997615816
12,88,bias,1,1,0.32639999997615815
12,89,bias,0,0,0.3305
12,90,bias,1,1,0.27939999997615816
12,91,bias,1,1,0.2679000000953674
12,92,bias,0,0,0.3309000000953674
12,93,bias,0,1,0.2963999999761581
12,94,bias,1,1,0.5248000000715256
12,95,bias,1,1,0.32570000004768374
12,96,bias,1,1,0.41160000002384184
12,97,bias,1,1,0.28069999992847444
12,98,bias,0,0,0.3702999999523162
12,100,bias,0,1,0.32589999997615815
12,101,bias,0,0,0.296
12,102,bias,0,0,0.2953999999761581
12,103,bias,1,1,0.30090000009536744
12,104,bias,1,1,0.2537999999523163
12,105,bias,1,1,0.3835
12,107,bias,1,1,0.28439999997615817
12,108,bias,1,1,0.3380999999046326
12,109,bias,1,1,0.35440000009536743
12,110,bias,0,1,0.4717000000476837
12,111,bias,0,1,0.15670000004768372
12,112,bias,0,0,0.31360000002384186
12,113,bias,0,1,0.2942000000476837
12,114,bias,1,1,0.34319999992847444
12,115,bias,1,1,0.297
12,116,bias,0,1,0.3702999999523162
12,117,bias,0,1,0.32420000004768373
12,118,bias,1,1,0.3015
12,119,bias,1,1,0.3181999999284744
12,120,bias,0,1,0.3377999999523163
12,97,no_bias,0,0,0.4657999999523163
12,98,no_bias,1,1,0.7045999999046326
12,99,no_bias,1,1,0.3572000000476837
12,100,no_bias,1,1,0.32839999997615815
12,101,no_bias,0,1,0.4751999999284745
12,102,no_bias,1,1,0.3831999999284744
12,103,no_bias,0,1,0.7956000000238419
12,104,no_bias,0,1,0.46939999997615817
12,105,no_bias,0,1,0.3351000000238419
12,106,no_bias,1,1,0.485
12,107,no_bias,1,1,0.3457000000476837
12,108,no_bias,1,1,0.5251000000238418
12,109,no_bias,1,1,0.3945
12,110,no_bias,0,1,0.34660000002384184
12,111,no_bias,1,1,0.27539999997615816
12,112,no_bias,0,1,0.4536000000238419
12,113,no_bias,0,1,0.3971999999284744
12,114,no_bias,1,1,0.30709999990463255
12,115,no_bias,0,1,0.6367999999523163
12,116,no_bias,0,0,0.408
12,117,no_bias,0,1,0.22430000007152556
12,118,no_bias,1,1,0.37560000002384186
12,119,no_bias,1,1,0.32919999992847443
12,120,no_bias,0,1,0.34860000002384184
12,121,bias,1,0,1.033899999976158
12,122,bias,1,1,0.7387000000476838
12,123,bias,0,1,0.5426999999284744
12,124,bias,0,0,0.8543000000715256
12,125,bias,1,0,0.3289000000953674
12,126,bias,0,1,0.10510000002384186
12,127,bias,1,1,0.26189999997615815
12,128,bias,1,1,0.2827000000476837
12,129,bias,1,0,0.12379999995231628
12,130,bias,1,1,0.13809999990463256
12,131,bias,0,0,0.3003999999761581
12,132,bias,1,0,0.2395
12,133,bias,1,1,0.33389999997615816
12,134,bias,0,0,0.4511999999284744
12,135,bias,0,1,0.2992000000476837
12,136,bias,0,1,0.41310000002384184
12,138,bias,0,1,0.46710000002384183
12,139,bias,1,1,0.1825
12,140,bias,1,0,0.6007000000476838
12,141,bias,0,1,0.38690000009536746
12,143,bias,0,0,0.5971000000238419
12,144,bias,1,0,1.182899999976158
12,121,no_bias,1,1,0.39220000004768374
12,122,no_bias,0,1,0.35469999992847445
12,123,no_bias,0,1,0.26439999997615815
12,124,no_bias,1,1,0.20560000002384185
12,125,no_bias,0,1,0.4848000000715256
12,126,no_bias,1,1,0.16889999997615815
12,127,no_bias,0,1,0.5285
12,128,no_bias,1,1,0.31739999997615814
12,129,no_bias,0,1,0.4198999999761581
12,130,no_bias,0,0,0.19839999997615815
12,131,no_bias,1,1,0.3482999999523163
12,132,no_bias,0,0,0.3391000000238419
12,133,no_bias,1,0,0.3542000000476837
12,134,no_bias,1,1,0.4582999999523163
12,135,no_bias,0,1,0.5028000000715256
12,136,no_bias,1,1,0.2261999999284744
12,137,no_bias,0,0,0.5318000000715256
12,138,no_bias,0,1,0.335
12,139,no_bias,1,1,0.3517999999523163
12,140,no_bias,0,1,0.4047000000476837
12,141,no_bias,0,0,0.4110999999046326
12,142,no_bias,1,1,0.3248000000715256
12,143,no_bias,1,1,0.3585
12,144,no_bias,1,1,0.26439999997615815
13,1,bias,0,0,3.4446000000238417
13,2,bias,0,0,1.6092999999523163
13,3,bias,1,1,1.325
13,4,bias,1,1,1.1365
13,5,bias,0,1,2.092
13,6,bias,1,1,1.171899999976158
13,7,bias,0,0,1.2037999999523166
13,8,bias,1,1,0.8785
13,9,bias,0,1,1.3944000000953674
13,10,bias,1,1,1.178
13,11,bias,0,1,1.3289000000953677
13,12,bias,0,1,1.354399999976158
13,13,bias,1,1,0.8836000000238419
13,14,bias,1,1,0.8857000000476837
13,15,bias,0,1,1.4911999999284744
13,16,bias,1,1,0.866
13,17,bias,0,1,1.163600000023842
13,18,bias,1,1,0.8721000000238418
13,19,bias,0,1,0.982399999976158
13,20,bias,0,1,0.8995
13,21,bias,1,1,0.8438999999761582
13,22,bias,1,1,0.8183999999761581
13,23,bias,0,1,0.981399999976158
13,24,bias,1,1,0.8223999999761581
13,1,no_bias,0,0,3.0716999999284744
13,2,no_bias,0,1,2.328100000023842
13,3,no_bias,1,1,1.6338000000715256
13,4,no_bias,1,1,0.8487000000476838
13,5,no_bias,0,1,1.1177999999523165
13,6,no_bias,1,1,0.8856999999284745
13,7,no_bias,1,1,0.7977999999523163
13,8,no_bias,0,1,0.9132999999523164
13,9,no_bias,1,1,0.7798999999761581
13,10,no_bias,0,1,1.4737999999523166
13,11,no_bias,0,1,0.9031999999284744
13,12,no_bias,1,1,0.8356000000238418
13,13,no_bias,0,1,0.8892999999523162
13,14,no_bias,0,1,0.925600000023842
13,15,no_bias,1,1,0.7817000000476837
13,16,no_bias,0,0,0.8035
13,17,no_bias,0,1,0.92
13,18,no_bias,1,1,0.6846000000238418
13,19,no_bias,1,1,0.7723999999761582
13,20,no_bias,0,1,0.9516999999284744
13,21,no_bias,1,1,0.8025
13,22,no_bias,1,1,0.7072999999523163
13,23,no_bias,0,1,1.0972999999523163
13,24,no_bias,1,1,0.6624000000953675
13,25,no_bias,0,1,1.747899999976158
13,26,no_bias,0,1,1.852899999976158
13,27,no_bias,1,1,1.221100000023842
13,28,no_bias,1,1,1.1055999999046326
13,29,no_bias,1,1,0.9942000000476836
13,30,no_bias,1,1,1.1196999999284745
13,31,no_bias,1,1,0.7662000000476837
13,32,no_bias,0,1,0.911100000023842
13,33,no_bias,1,1,0.9062000000476836
13,34,no_bias,1,1,1.3125
13,35,no_bias,0,1,0.941899999976158
13,36,no_bias,0,1,0.9264000000953674
13,37,no_bias,0,1,0.8585
13,38,no_bias,1,1,0.6972999999523163
13,39,no_bias,0,1,1.1395
13,40,no_bias,0,1,0.898
13,41,no_bias,1,1,1.1102000000476837
13,42,no_bias,0,1,1.0057000000476837
13,43,no_bias,1,1,0.984899999976158
13,44,no_bias,1,1,0.8843999999761581
13,45,no_bias,0,1,0.950399999976158
13,46,no_bias,0,1,0.8036000000238419
13,47,no_bias,1,1,0.9834000000953674
13,48,no_bias,0,1,0.967399999976158
13,49,no_bias,0,1,2.965100000023842
13,50,no_bias,1,1,1.5333999999761578
13,51,no_bias,1,1,1.046100000023842
13,52,no_bias,1,0,1.3212999999523165
13,53,no_bias,0,1,0.8796000000238419
13,54,no_bias,1,0,0.899
13,55,no_bias,1,0,0.8291000000238419
13,56,no_bias,1,1,2.285099999904633
13,57,no_bias,0,1,0.9172000000476837
13,58,no_bias,0,1,0.9276999999284744
13,59,no_bias,0,1,0.9227999999523164
13,60,no_bias,1,1,0.960600000023842
13,61,no_bias,0,1,0.931600000023842
13,62,no_bias,0,1,1.5577999999523164
13,63,no_bias,1,1,0.837
13,64,no_bias,0,1,1.1578000000715256
13,65,no_bias,1,1,1.4127000000476837
13,66,no_bias,1,1,1.1495999999046325
13,67,no_bias,1,0,0.936899999976158
13,68,no_bias,0,1,0.9617999999523164
13,69,no_bias,0,1,0.8017999999523163
13,70,no_bias,0,1,0.8287999999523162
13,71,no_bias,1,1,1.0315999999046326
13,72,no_bias,0,1,0.940399999976158
13,25,bias,1,1,1.5601999999284744
13,27,bias,1,0,1.072899999976158
13,28,bias,0,1,0.8031000000238419
13,29,bias,1,0,0.8555
13,30,bias,0,1,0.8501000000238419
13,31,bias,0,1,0.8698999999761582
13,32,bias,1,1,0.8212000000476837
13,33,bias,0,1,1.012899999976158
13,34,bias,1,1,0.9387000000476836
13,35,bias,0,1,0.916
13,36,bias,1,0,0.7906999999284744
13,37,bias,0,1,0.887
13,38,bias,0,1,0.7791000000238418
13,39,bias,1,1,1.526
13,40,bias,0,1,0.93
13,41,bias,1,1,0.8661999999284744
13,42,bias,0,1,0.971899999976158
13,43,bias,1,1,0.8253999999761581
13,44,bias,0,0,0.971399999976158
13,45,bias,1,1,0.7761000000238418
13,46,bias,0,1,1.381600000023842
13,47,bias,1,0,2.200900000095367
13,48,bias,0,1,0.9635
13,49,bias,1,1,1.169899999976158
13,50,bias,0,1,1.5307999999523163
13,51,bias,1,1,1.048
13,52,bias,1,1,0.8610999999046326
13,53,bias,1,1,0.8065999999046326
13,54,bias,0,1,0.9563000000715256
13,55,bias,1,1,0.8058999999761581
13,56,bias,1,1,0.8323999999761581
13,57,bias,0,1,0.914600000023842
13,58,bias,0,1,0.8118000000715255
13,59,bias,1,1,0.804
13,60,bias,1,1,0.7252000000476837
13,61,bias,1,1,0.7145
13,62,bias,0,1,0.8863999999761581
13,63,bias,1,1,0.8632999999523163
13,64,bias,0,1,0.861
13,65,bias,0,1,0.7878999999761581
13,66,bias,0,0,0.7312000000476837
13,67,bias,1,1,1.1045
13,68,bias,0,1,0.8233000000715256
13,69,bias,0,1,1.5465999999046325
13,70,bias,0,1,0.8573000000715256
13,71,bias,1,1,0.858
13,72,bias,0,1,0.914100000023842
13,73,no_bias,0,0,2.4815
13,74,no_bias,1,1,0.8782000000476837
13,75,no_bias,0,1,1.4191999999284743
13,76,no_bias,1,1,0.929100000023842
13,77,no_bias,0,1,0.9556999999284744
13,78,no_bias,0,1,0.8551000000238419
13,79,no_bias,0,1,0.8276000000238418
13,80,no_bias,0,1,0.8371000000238419
13,81,no_bias,0,1,0.7807000000476837
13,82,no_bias,0,1,0.8545
13,83,no_bias,1,1,0.922100000023842
13,84,no_bias,1,1,0.7670999999046326
13,85,no_bias,0,1,0.9065999999046326
13,86,no_bias,1,1,0.9616999999284744
13,87,no_bias,1,1,0.7941000000238418
13,88,no_bias,0,1,0.9069000000953674
13,89,no_bias,0,1,0.8118999999761581
13,90,no_bias,1,1,0.8767999999523163
13,91,no_bias,1,1,0.76
13,92,no_bias,1,1,0.7291999999284744
13,93,no_bias,1,1,0.7849000000953674
13,94,no_bias,1,1,0.7241999999284744
13,95,no_bias,1,1,0.6622999999523163
13,96,no_bias,0,1,1.231100000023842
13,73,bias,1,1,1.6367000000476837
13,74,bias,1,1,0.9160999999046324
13,75,bias,0,1,1.464
13,76,bias,0,1,0.8889000000953674
13,77,bias,0,1,0.7753000000715256
13,78,bias,0,1,0.8083999999761582
13,79,bias,0,1,0.8069000000953674
13,80,bias,0,1,0.8032000000476838
13,81,bias,1,1,0.6997000000476837
13,82,bias,1,1,0.8723000000715255
13,83,bias,0,1,1.0461999999284743
13,84,bias,1,1,0.5861000000238419
13,85,bias,1,1,0.5828999999761582
13,86,bias,1,1,0.7743999999761582
13,87,bias,0,1,0.9592000000476836
13,88,bias,0,1,0.8419000000953675
13,89,bias,1,0,0.7822000000476838
13,90,bias,0,1,0.8017999999523163
13,91,bias,1,1,0.8496000000238418
13,92,bias,1,1,0.7153999999761581
13,93,bias,1,1,0.7585
13,94,bias,0,1,1.021
13,95,bias,0,1,0.8472999999523163
13,96,bias,1,0,0.8343999999761581
13,97,bias,0,1,1.159
13,98,bias,0,0,1.3637000000476835
13,99,bias,1,1,0.844
13,100,bias,0,1,0.9132000000476836
13,101,bias,1,1,0.8562000000476837
13,102,bias,1,0,1.1197000000476836
13,103,bias,0,1,0.8892999999523162
13,104,bias,1,1,0.8751000000238418
13,105,bias,0,1,0.979899999976158
13,106,bias,1,1,0.8921999999284744
13,107,bias,0,1,0.910600000023842
13,108,bias,1,1,0.8358999999761582
13,109,bias,1,1,0.7588000000715256
13,110,bias,1,1,0.7406999999284745
13,111,bias,0,1,0.8944000000953675
13,112,bias,0,1,0.7392999999523163
13,113,bias,1,1,0.8501000000238419
13,114,bias,1,1,0.7311000000238419
13,115,bias,0,0,1.151
13,116,bias,0,1,1.2088000000715255
13,117,bias,0,1,0.8527999999523163
13,118,bias,1,1,0.9006999999284744
13,119,bias,1,1,0.7527999999523163
13,120,bias,0,0,0.7671999999284744
13,97,no_bias,0,0,1.8863999999761576
13,98,no_bias,1,1,1.0886999999284743
13,99,no_bias,0,1,0.9957999999523164
13,100,no_bias,0,1,0.8415
13,101,no_bias,1,1,0.9810999999046326
13,102,no_bias,0,1,0.8286000000238418
13,103,no_bias,0,1,0.7781000000238418
13,104,no_bias,0,1,0.7713000000715255
13,105,no_bias,0,1,0.8155999999046326
13,106,no_bias,0,1,0.8461999999284744
13,107,no_bias,0,0,1.888
13,108,no_bias,1,1,0.9300999999046324
13,109,no_bias,0,1,0.887
13,110,no_bias,0,1,1.327
13,111,no_bias,1,1,0.8306000000238418
13,112,no_bias,1,1,0.7592000000476837
13,113,no_bias,1,1,0.7558999999761581
13,114,no_bias,0,1,0.9081999999284744
13,115,no_bias,1,1,0.841
13,116,no_bias,1,1,0.7362000000476837
13,117,no_bias,1,1,0.7715999999046326
13,118,no_bias,1,1,0.7699000000953674
13,119,no_bias,1,1,0.8512999999523163
13,120,no_bias,1,0,0.949100000023842
13,121,bias,1,1,1.136
13,122,bias,0,0,0.8766000000238419
13,123,bias,0,1,0.9161999999284745
13,124,bias,1,1,0.8416000000238418
13,125,bias,1,1,0.7407999999523163
13,126,bias,0,1,0.925
13,127,bias,1,1,0.8925
13,128,bias,1,1,1.2336999999284743
13,129,bias,1,1,0.7776000000238419
13,130,bias,0,1,0.8852000000476837
13,131,bias,1,1,0.8001999999284745
13,132,bias,1,1,0.7218999999761582
13,133,bias,0,1,0.9078000000715256
13,134,bias,1,1,0.8617000000476838
13,135,bias,0,0,1.0878000000715256
13,136,bias,0,1,0.8808999999761581
13,137,bias,0,1,0.8352999999523163
13,138,bias,1,1,1.172899999976158
13,139,bias,0,1,0.970399999976158
13,140,bias,0,1,0.8736999999284745
13,141,bias,0,1,0.8636999999284745
13,142,bias,1,1,0.8278000000715255
13,143,bias,1,1,0.7093999999761581
13,144,bias,0,1,1.5233000000715256
13,121,no_bias,0,1,1.3492000000476836
13,122,no_bias,1,1,1.1962999999523165
13,123,no_bias,0,1,1.135600000023842
13,124,no_bias,1,1,0.8383000000715256
13,125,no_bias,0,1,1.0157000000476837
13,126,no_bias,1,1,0.8967000000476837
13,127,no_bias,0,1,0.922600000023842
13,128,no_bias,0,0,0.8367999999523162
13,129,no_bias,1,1,0.7395
13,130,no_bias,1,1,0.7741000000238418
13,131,no_bias,1,1,0.7651000000238418
13,132,no_bias,0,0,0.7455
13,133,no_bias,0,1,1.0202000000476836
13,134,no_bias,0,1,0.8532000000476837
13,135,no_bias,1,1,0.8484000000953674
13,136,no_bias,1,1,0.7702000000476837
13,137,no_bias,0,1,1.2168999999761578
13,138,no_bias,0,1,0.8278999999761582
13,139,no_bias,0,0,1.179
13,140,no_bias,1,1,0.8727000000476837
13,141,no_bias,1,1,0.7371000000238419
13,142,no_bias,1,0,0.939100000023842
13,143,no_bias,1,1,0.837
13,144,no_bias,0,1,0.946
14,1,no_bias,1,1,1.0215
14,2,no_bias,1,1,0.41819999992847445
14,3,no_bias,0,1,0.6631000000238418
14,4,no_bias,1,1,0.3042000000476837
14,5,no_bias,1,1,0.27430000007152555
14,6,no_bias,1,1,0.28230000007152556
14,7,no_bias,1,1,0.2501999999284744
14,8,no_bias,1,1,0.3135
14,9,no_bias,1,1,0.30339999997615813
14,10,no_bias,0,0,0.6828000000715255
14,11,no_bias,0,1,0.38770000004768373
14,12,no_bias,1,1,0.23839999997615816
14,13,no_bias,1,1,0.3147000000476837
14,14,no_bias,1,1,0.3276000000238419
14,15,no_bias,0,1,0.5091000000238418
14,16,no_bias,1,1,0.3153000000715256
14,17,no_bias,0,1,0.37989999997615814
14,18,no_bias,0,1,0.46239999997615816
14,19,no_bias,0,1,0.44870000004768373
14,20,no_bias,0,0,0.5092000000476837
14,21,no_bias,0,0,0.40339999997615816
14,22,no_bias,0,1,0.2704000000953674
14,23,no_bias,0,1,0.6933000000715256
14,24,no_bias,0,0,0.33989999997615816
14,25,no_bias,1,1,1.490899999976158
14,26,no_bias,1,1,0.33780000007152555
14,27,no_bias,0,1,0.49360000002384186
14,28,no_bias,1,1,0.2975
14,29,no_bias,1,1,0.6431000000238418
14,30,no_bias,1,1,0.37189999997615814
14,31,no_bias,0,1,0.7435
14,32,no_bias,1,1,0.387
14,33,no_bias,1,1,0.33780000007152555
14,34,no_bias,1,1,0.3395
14,35,no_bias,0,0,0.5902999999523163
14,36,no_bias,0,1,0.364
14,37,no_bias,1,1,0.258
14,38,no_bias,1,1,0.3057000000476837
14,39,no_bias,0,1,0.4837000000476837
14,40,no_bias,0,0,0.6898999999761581
14,41,no_bias,0,1,0.21560000002384183
14,42,no_bias,0,0,0.5811000000238419
14,43,no_bias,1,1,0.3976000000238419
14,44,no_bias,0,1,0.3555
14,45,no_bias,0,0,0.5853999999761581
14,46,no_bias,0,1,0.4848000000715256
14,47,no_bias,0,1,0.6533999999761582
14,48,no_bias,1,1,0.38870000004768374
14,1,bias,0,1,1.6131999999284743
14,2,bias,0,0,0.3142000000476837
14,3,bias,1,1,0.2935
14,4,bias,1,1,0.36939999997615813
14,5,bias,0,0,0.3901000000238419
14,6,bias,1,1,0.14839999997615813
14,9,bias,1,1,0.21189999997615816
14,10,bias,1,1,0.3082999999523163
14,11,bias,0,0,0.5293000000715256
14,12,bias,0,1,0.586
14,13,bias,1,1,0.629
14,14,bias,1,1,0.22220000004768373
14,15,bias,0,0,0.3397999999523163
14,16,bias,1,1,0.266
14,17,bias,0,0,0.304
14,18,bias,0,0,0.4222000000476837
14,19,bias,1,1,0.2883999999761581
14,20,bias,0,0,0.28730000007152556
14,21,bias,0,1,0.4512999999523163
14,22,bias,0,0,0.3407000000476837
14,23,bias,1,1,0.23239999997615815
14,24,bias,0,1,0.5697999999523163
14,49,no_bias,0,0,0.8478999999761582
14,50,no_bias,1,1,0.30960000002384186
14,51,no_bias,0,1,0.43839999997615814
14,52,no_bias,0,1,0.5197999999523163
14,53,no_bias,1,1,0.24729999995231627
14,54,no_bias,0,1,0.6118999999761582
14,55,no_bias,0,1,1.0002000000476836
14,56,no_bias,1,1,0.139
14,57,no_bias,0,1,0.3911000000238419
14,58,no_bias,1,1,0.45739999997615816
14,59,no_bias,0,1,0.448
14,60,no_bias,1,1,0.23489999997615815
14,61,no_bias,1,1,0.35710000002384185
14,62,no_bias,0,0,0.5707999999523163
14,63,no_bias,1,1,0.1687000000476837
14,64,no_bias,1,1,0.2787000000476837
14,65,no_bias,0,1,0.5060999999046326
14,66,no_bias,1,1,0.2915
14,67,no_bias,0,1,0.25839999997615815
14,68,no_bias,1,1,0.29579999995231626
14,69,no_bias,1,1,0.23730000007152555
14,70,no_bias,1,1,0.31910000002384187
14,71,no_bias,0,1,0.3071999999284744
14,72,no_bias,0,0,0.2105
14,73,no_bias,0,1,0.9172000000476837
14,74,no_bias,0,1,0.3508999999761581
14,75,no_bias,1,1,0.24
14,76,no_bias,0,1,0.5338000000715256
14,77,no_bias,1,1,0.256
14,78,no_bias,0,1,1.1228000000715257
14,79,no_bias,1,1,0.3946000000238419
14,80,no_bias,0,1,0.3571999999284744
14,81,no_bias,0,1,0.7132999999523163
14,82,no_bias,1,1,0.6958999999761581
14,83,no_bias,1,1,0.25620000004768373
14,84,no_bias,1,1,0.2521000000238418
14,85,no_bias,1,1,0.2802000000476837
14,86,no_bias,1,1,0.26970000004768374
14,87,no_bias,0,1,0.38060000002384187
14,88,no_bias,1,1,0.13610000002384187
14,89,no_bias,1,1,0.30509999990463255
14,90,no_bias,0,1,0.808
14,91,no_bias,0,0,0.4003000000715255
14,92,no_bias,0,0,0.38110000002384187
14,93,no_bias,0,1,0.6021000000238419
14,94,no_bias,0,0,0.44010000002384186
14,95,no_bias,1,1,0.45370000004768374
14,25,bias,0,0,0.34760000002384184
14,26,bias,0,0,0.2265
14,27,bias,0,0,0.20039999997615815
14,28,bias,0,0,0.28810000002384184
14,29,bias,1,1,0.7219000000953675
14,30,bias,1,1,0.6216000000238419
14,31,bias,0,0,0.41710000002384184
14,32,bias,0,1,0.36660000002384185
14,33,bias,1,1,0.5160999999046326
14,34,bias,1,1,0.30889999997615813
14,35,bias,1,1,0.2952000000476837
14,36,bias,1,1,0.148
14,37,bias,1,1,0.3082000000476837
14,38,bias,0,0,0.35660000002384185
14,39,bias,0,0,0.355
14,40,bias,1,1,0.2678000000715256
14,41,bias,0,0,0.402
14,42,bias,0,0,0.3182999999523163
14,43,bias,0,0,0.23659999990463257
14,45,bias,0,0,0.4575
14,46,bias,1,1,0.13119999992847442
14,47,bias,1,1,0.3132000000476837
14,48,bias,1,1,0.2922000000476837
14,96,no_bias,1,1,0.3147999999523163
14,97,no_bias,1,1,0.254
14,98,no_bias,1,1,0.26389999997615815
14,99,no_bias,1,1,0.20910000002384185
14,100,no_bias,1,1,0.2731000000238419
14,101,no_bias,0,0,0.34730000007152556
14,102,no_bias,0,1,0.3213000000715256
14,103,no_bias,0,1,0.2277000000476837
14,105,no_bias,1,1,0.2115
14,106,no_bias,1,1,0.26620000004768374
14,107,no_bias,0,0,0.5168999999761581
14,108,no_bias,0,0,0.395
14,109,no_bias,1,1,0.22980000007152557
14,110,no_bias,0,1,0.2927000000476837
14,111,no_bias,1,1,0.29929999995231626
14,112,no_bias,0,1,0.5588999999761581
14,113,no_bias,0,0,0.4020999999046326
14,116,no_bias,1,1,0.2805
14,117,no_bias,0,1,0.6017000000476838
14,118,no_bias,0,1,0.6947000000476837
14,119,no_bias,1,1,0.227
14,120,no_bias,0,0,0.3745
14,121,no_bias,1,1,0.2966999999284744
14,122,no_bias,0,1,0.2506000000238418
14,123,no_bias,0,1,0.5805
14,125,no_bias,0,1,0.28969999992847445
14,126,no_bias,0,1,0.39170000004768374
14,127,no_bias,0,1,0.3601999999284744
14,128,no_bias,0,0,0.323
14,129,no_bias,1,1,0.27389999997615816
14,130,no_bias,1,1,0.3176999999284744
14,131,no_bias,0,1,0.24879999995231628
14,132,no_bias,0,0,0.3302999999523163
14,133,no_bias,1,1,0.4193000000715256
14,135,no_bias,1,1,0.47
14,136,no_bias,0,1,0.4144000000953674
14,137,no_bias,0,1,0.32809999990463257
14,138,no_bias,0,1,0.385
14,139,no_bias,1,1,0.3365
14,140,no_bias,1,1,0.2707999999523163
14,141,no_bias,1,1,0.3081999999284744
14,142,no_bias,1,1,0.4297000000476837
14,143,no_bias,1,1,0.2632999999523163
14,49,bias,1,1,0.34969999992847445
14,50,bias,0,0,0.5483000000715256
14,51,bias,0,1,0.30689999997615813
14,52,bias,0,0,0.38539999997615815
14,53,bias,1,1,0.29279999995231626
14,54,bias,1,1,0.4357999999523163
14,55,bias,1,1,0.2887999999523163
14,56,bias,0,0,0.44489999997615814
14,58,bias,0,0,0.4615
14,59,bias,1,1,0.271
14,60,bias,0,0,0.4623000000715255
14,61,bias,1,1,0.3156999999284744
14,62,bias,0,0,0.3658999999761582
14,63,bias,1,1,0.47010000002384184
14,64,bias,0,0,0.6402000000476837
14,65,bias,1,1,0.265
14,66,bias,0,0,0.42510000002384185
14,67,bias,1,1,0.3086999999284744
14,68,bias,0,1,0.36939999997615813
14,69,bias,0,0,0.32039999997615815
14,70,bias,1,1,0.2899000000953674
14,71,bias,1,1,0.4805
14,74,bias,1,1,0.28360000002384184
14,75,bias,1,1,0.2957000000476837
14,76,bias,0,0,0.3132000000476837
14,78,bias,0,0,0.37389999997615814
14,79,bias,0,0,0.3212999999523163
14,80,bias,0,0,0.287
14,81,bias,1,1,0.3812000000476838
14,82,bias,0,0,0.4928000000715256
14,83,bias,1,1,0.316
14,84,bias,1,1,0.3045
14,86,bias,0,0,0.7105
14,87,bias,1,1,0.291
14,88,bias,1,1,0.276
14,89,bias,0,0,0.3027000000476837
14,90,bias,0,0,0.4
14,91,bias,0,0,0.2558000000715256
14,92,bias,0,0,0.30810000002384186
14,93,bias,0,1,0.3248000000715256
14,94,bias,0,0,0.3772000000476837
14,95,bias,1,1,0.3142999999523163
14,96,bias,1,1,0.3826000000238418
14,97,bias,0,0,0.5934000000953674
14,98,bias,1,1,0.26320000004768374
14,99,bias,0,1,0.3145
14,100,bias,1,1,0.25789999997615815
14,101,bias,0,0,0.33
14,102,bias,0,1,0.6568999999761581
14,103,bias,0,1,0.32589999997615815
14,104,bias,0,1,0.48660000002384185
14,105,bias,1,1,0.2695
14,106,bias,1,1,0.3342999999523163
14,107,bias,0,0,0.3773000000715256
14,108,bias,0,1,0.5497999999523163
14,109,bias,1,1,0.28489999997615817
14,110,bias,1,1,0.30660000002384186
14,111,bias,1,1,0.36310000002384185
14,113,bias,1,1,0.26770000004768374
14,114,bias,1,1,0.28980000007152557
14,115,bias,0,1,0.5668999999761581
14,116,bias,0,0,0.287
14,117,bias,1,1,0.30379999995231627
14,118,bias,0,0,0.3307999999523163
14,119,bias,1,1,0.32539999997615815
14,120,bias,0,0,0.32010000002384187
14,121,bias,0,0,0.3811999999284744
14,122,bias,0,0,0.386
14,123,bias,0,1,0.45239999997615815
14,124,bias,1,1,0.3377999999523163
14,125,bias,0,0,0.32709999990463257
14,126,bias,0,1,0.3732999999523163
14,127,bias,1,1,0.2616999999284744
14,128,bias,0,1,0.3178000000715256
14,129,bias,1,1,0.24310000002384183
14,130,bias,1,1,0.2895
14,131,bias,0,1,0.7548000000715256
14,132,bias,1,1,0.2847000000476837
14,133,bias,1,1,0.11509999990463256
14,134,bias,0,0,0.386
14,135,bias,1,1,0.3417999999523163
14,136,bias,0,0,0.4907000000476837
14,137,bias,0,0,0.24989999997615817
14,138,bias,1,1,0.2582999999523163
14,139,bias,0,1,0.6162999999523163
14,140,bias,0,0,0.2863999999761581
14,141,bias,1,1,0.308
14,142,bias,1,1,0.2903999999761581
14,143,bias,1,1,0.28339999997615817
14,144,bias,1,1,0.3625
16,2,no_bias,1,1,1.9434000000003724
16,3,no_bias,1,1,2.904699999999255
16,4,no_bias,1,0,2.235800000000745
16,5,no_bias,0,0,1.4201000000014898
16,6,no_bias,0,0,3.3247000000011178
16,7,no_bias,1,1,1.77989999999851
16,8,no_bias,1,1,0.9393000000007452
16,9,no_bias,1,1,1.093
16,10,no_bias,1,1,0.862
16,11,no_bias,1,1,0.5721000000014901
16,12,no_bias,0,1,1.907
16,13,no_bias,0,1,1.981400000000372
16,14,no_bias,1,1,1.3833000000007452
16,15,no_bias,0,1,1.8345
16,16,no_bias,1,1,0.9325
16,18,no_bias,1,1,0.8265999999996275
16,19,no_bias,0,1,2.1765
16,20,no_bias,0,1,1.4272000000011176
16,21,no_bias,0,0,3.504400000000373
16,22,no_bias,0,0,0.1935
16,23,no_bias,1,1,1.1147999999988825
16,1,bias,1,1,1.9715
16,2,bias,1,1,0.5972999999988824
16,3,bias,1,1,0.3835999999996274
16,4,bias,1,1,0.5008999999985099
16,5,bias,1,1,0.5697999999988824
16,6,bias,0,1,1.5705999999996276
16,7,bias,1,1,1.153
16,8,bias,0,1,1.510699999999255
16,9,bias,1,1,0.5756999999992549
16,11,bias,1,1,0.5763999999985099
16,12,bias,0,1,3.275699999999255
16,13,bias,0,0,2.5633999999985098
16,14,bias,1,1,0.676199999999255
16,15,bias,1,1,0.5685999999996275
16,16,bias,0,0,3.5478000000007452
16,17,bias,0,1,2.935
16,18,bias,0,1,0.8877999999988824
16,19,bias,1,1,0.33869999999925493
16,20,bias,0,1,1.0155
16,21,bias,0,1,3.0565999999996274
16,22,bias,0,1,0.95339999999851
16,23,bias,1,1,0.21
16,24,bias,0,1,1.9591999999992549
16,25,no_bias,1,1,0.10369999999925494
16,26,no_bias,1,1,0.4591999999992549
16,27,no_bias,0,0,1.871
16,28,no_bias,0,1,1.463
16,29,no_bias,1,1,0.3717999999988824
16,30,no_bias,0,1,0.9825999999996275
16,31,no_bias,1,1,0.1535
16,32,no_bias,0,0,1.4635
16,33,no_bias,1,0,1.2605999999996278
16,34,no_bias,1,1,0.8457999999988824
16,35,no_bias,1,1,2.1439000000003725
16,37,no_bias,1,0,2.195699999999255
16,38,no_bias,0,0,0.4258000000007451
16,39,no_bias,0,0,0.4635
16,40,no_bias,1,1,0.6147000000011176
16,41,no_bias,1,1,0.4434000000003726
16,42,no_bias,0,1,1.6898000000007452
16,44,no_bias,0,0,1.0119000000003724
16,45,no_bias,0,1,2.740800000000745
16,46,no_bias,0,0,3.375300000000745
16,47,no_bias,1,0,0.8719000000003725
16,48,no_bias,1,0,0.7688000000007451
16,25,bias,1,1,2.1979000000003723
16,26,bias,1,0,1.5420999999996277
16,27,bias,0,1,0.8454000000003725
16,28,bias,0,0,0.4945
16,29,bias,0,1,0.41619999999925494
16,30,bias,1,1,0.5485
16,31,bias,1,1,0.35819999999925495
16,32,bias,1,1,0.44580000000074504
16,33,bias,1,1,0.11380000000074506
16,34,bias,1,1,0.18409999999962748
16,35,bias,0,0,0.3745999999996274
16,36,bias,0,0,0.3459000000003725
16,37,bias,0,1,0.46190000000037257
16,38,bias,1,1,0.119
16,39,bias,0,0,1.238199999999255
16,40,bias,0,0,0.795800000000745
16,41,bias,0,0,1.6324000000003722
16,42,bias,0,1,0.663800000000745
16,43,bias,1,1,0.396
16,44,bias,1,1,1.3540999999996275
16,45,bias,0,0,0.5759000000003726
16,46,bias,0,1,3.4755
16,47,bias,1,1,1.257
16,48,bias,1,1,0.13569999999925494
16,49,no_bias,0,0,2.044
16,50,no_bias,1,1,0.7152000000011176
16,51,no_bias,0,0,0.5371000000014902
16,52,no_bias,1,1,0.2745
16,53,no_bias,1,1,0.1045
16,54,no_bias,0,0,0.2735999999996275
16,55,no_bias,0,0,1.1459000000003725
16,56,no_bias,1,1,0.4046000000014901
16,57,no_bias,0,0,0.521699999999255
16,58,no_bias,1,1,0.23509999999962747
16,59,no_bias,0,0,0.4392000000011176
16,60,no_bias,0,0,0.3945999999996274
16,61,no_bias,1,1,0.40730000000074507
16,62,no_bias,1,1,0.1177000000011176
16,63,no_bias,1,1,0.46090000000037257
16,64,no_bias,0,0,0.6095
16,65,no_bias,0,0,0.5862999999988824
16,66,no_bias,1,1,0.1256000000014901
16,67,no_bias,0,0,0.46180000000074506
16,68,no_bias,1,1,0.1715
16,69,no_bias,1,1,0.18110000000149012
16,70,no_bias,0,0,0.4535
16,71,no_bias,0,0,0.8925999999996275
16,49,bias,0,0,1.2899000000003722
16,50,bias,1,1,1.0107000000011177
16,51,bias,0,0,0.544199999999255
16,52,bias,0,0,0.4284000000003726
16,53,bias,0,0,0.45030000000074505
16,54,bias,1,1,0.3752000000011176
16,55,bias,1,1,0.740300000000745
16,56,bias,1,1,0.4469000000003726
16,57,bias,0,0,0.471800000000745
16,58,bias,1,1,0.3319000000003725
16,59,bias,0,0,0.5406999999992549
16,60,bias,0,0,0.4571999999992549
16,61,bias,1,1,0.3552999999988824
16,62,bias,1,1,0.26259999999962746
16,63,bias,0,0,0.4762000000011176
16,64,bias,1,1,0.40630000000074507
16,65,bias,1,1,0.3187999999988824
16,66,bias,1,1,0.24
16,67,bias,1,1,0.16990000000037253
16,68,bias,1,1,0.2062999999988824
16,69,bias,0,0,0.43119999999925496
16,70,bias,0,0,0.503
16,71,bias,0,0,0.4205
16,72,bias,0,0,0.5703000000007451
16,73,no_bias,1,1,0.6017000000011176
16,74,no_bias,0,0,0.4894000000003726
16,75,no_bias,0,1,1.3232999999988824
16,76,no_bias,1,1,0.5516999999992549
16,77,no_bias,1,1,1.02010000000149
16,78,no_bias,0,1,1.0259000000003724
16,79,no_bias,1,1,0.5301000000014902
16,80,no_bias,0,0,0.3540999999996275
16,81,no_bias,0,0,0.4756000000014901
16,82,no_bias,1,1,0.625300000000745
16,83,no_bias,0,0,0.5649000000003725
16,84,no_bias,0,0,0.5131999999992549
16,85,no_bias,1,1,0.3630999999996274
16,86,no_bias,0,0,0.522699999999255
16,87,no_bias,1,1,0.3946999999992549
16,88,no_bias,0,0,0.4845
16,89,no_bias,0,1,1.1114000000003723
16,90,no_bias,1,1,0.6275
16,91,no_bias,0,0,0.7113999999985099
16,92,no_bias,1,1,0.2425
16,93,no_bias,1,1,0.3442000000011176
16,94,no_bias,1,1,0.3102000000011176
16,96,no_bias,0,0,0.3853999999985099
16,73,bias,1,1,2.2330999999996273
16,74,bias,0,0,0.35119999999925494
16,75,bias,1,0,0.3945
16,77,bias,1,0,0.34569999999925494
16,79,bias,1,1,1.8375
16,80,bias,1,1,0.4005999999996274
16,81,bias,1,1,0.30159999999962744
16,82,bias,0,1,1.977800000000745
16,83,bias,1,1,0.5845999999996274
16,84,bias,1,1,0.236
16,85,bias,0,1,1.499
16,86,bias,0,1,0.7962999999988825
16,87,bias,0,0,0.39
16,88,bias,1,1,2.5269000000003725
16,89,bias,0,1,1.6227999999988825
16,90,bias,0,0,0.7655
16,91,bias,1,1,0.30169999999925495
16,93,bias,0,1,0.8282999999988824
16,94,bias,0,0,1.754
16,95,bias,0,1,2.873299999998882
16,96,bias,0,0,0.3945
16,98,no_bias,0,1,1.107199999999255
16,99,no_bias,0,0,0.5836999999992549
16,100,no_bias,0,1,1.236800000000745
16,101,no_bias,1,1,1.1089000000003724
16,102,no_bias,1,1,0.4354000000003726
16,103,no_bias,0,0,0.755
16,104,no_bias,1,1,0.9326999999992548
16,105,no_bias,1,1,0.4759000000003726
16,106,no_bias,1,1,1.149
16,107,no_bias,0,0,1.1026999999992548
16,108,no_bias,0,0,0.27419999999925493
16,109,no_bias,0,0,0.782800000000745
16,110,no_bias,1,1,0.12940000000037252
16,111,no_bias,1,1,0.725199999999255
16,112,no_bias,1,1,0.7827999999988824
16,113,no_bias,1,0,0.9005
16,114,no_bias,1,1,0.543
16,115,no_bias,1,1,1.187699999999255
16,116,no_bias,0,0,0.9415999999996276
16,117,no_bias,0,1,3.21010000000149
16,118,no_bias,0,0,1.2425
16,119,no_bias,0,0,0.988
16,121,no_bias,0,0,0.5011999999992549
16,122,no_bias,0,0,0.5707999999988824
16,123,no_bias,1,1,1.4685999999996278
16,124,no_bias,1,1,0.7754000000003726
16,125,no_bias,1,1,0.689800000000745
16,126,no_bias,0,0,1.121800000000745
16,127,no_bias,0,1,2.0704000000003724
16,128,no_bias,1,1,1.156300000000745
16,129,no_bias,0,0,0.9258000000007452
16,130,no_bias,0,0,2.7204000000003727
16,131,no_bias,0,1,2.9782999999988826
16,132,no_bias,1,0,1.762800000000745
16,133,no_bias,1,1,1.0060999999996276
16,134,no_bias,1,1,1.376199999999255
16,135,no_bias,0,1,1.907
16,136,no_bias,1,1,0.9591999999992548
16,137,no_bias,1,1,1.4730999999996277
16,138,no_bias,0,0,0.5185
16,139,no_bias,1,1,0.8644000000003725
16,140,no_bias,0,0,0.5080999999996274
16,141,no_bias,1,1,0.785800000000745
16,142,no_bias,0,0,0.9568000000007452
16,143,no_bias,0,1,2.2774000000003727
16,144,no_bias,1,0,0.6376000000014901
16,97,bias,0,0,0.7389000000003725
16,98,bias,1,1,0.7054000000003725
16,99,bias,0,0,1.2877000000011176
16,100,bias,1,1,0.6350999999996275
16,101,bias,0,1,1.2245
16,102,bias,1,1,0.9632000000011176
16,103,bias,1,1,0.8197000000011175
16,104,bias,0,1,1.0450999999996278
16,105,bias,1,1,1.1045999999996277
16,106,bias,0,1,1.04039999999851
16,107,bias,1,1,1.1466999999992549
16,108,bias,0,1,2.0785999999996276
16,109,bias,0,0,0.8019000000003725
16,111,bias,1,1,1.644475000000093
16,112,bias,0,0,0.8103000000007451
16,113,bias,1,1,0.9188000000007452
16,114,bias,0,0,0.5735
16,115,bias,1,1,0.8936000000014901
16,116,bias,1,1,0.13640000000037253
16,117,bias,0,0,0.7192000000011176
16,118,bias,0,0,0.6378000000007451
16,119,bias,1,1,0.7889000000003725
16,120,bias,0,0,0.41609999999962743
16,121,bias,1,1,0.6703000000007451
16,122,bias,0,0,1.5562000000011176
16,123,bias,0,1,1.4498000000007452
16,124,bias,0,0,0.634
16,125,bias,1,1,0.9958000000007452
16,126,bias,1,1,0.4799000000003726
16,127,bias,1,1,0.7655
16,128,bias,1,1,0.8413999999985099
16,129,bias,1,1,0.6695
16,130,bias,0,0,0.7042999999988824
16,131,bias,1,1,0.733
16,132,bias,0,0,0.7744000000003726
16,133,bias,0,1,0.7670999999996275
16,134,bias,1,1,0.7528000000007451
16,135,bias,0,0,1.1502000000011177
16,136,bias,1,1,1.794
16,137,bias,0,1,1.432199999999255
16,138,bias,1,1,0.5997000000011176
16,139,bias,0,0,0.5985999999996274
16,140,bias,1,1,0.7524000000003725
16,141,bias,0,0,0.44730000000074505
16,142,bias,0,1,0.5608999999985099
16,143,bias,1,1,0.5518999999985099
16,144,bias,0,0,0.5335999999996275
17,1,bias,1,0,2.9805
17,2,bias,1,1,2.6490999999940397
17,3,bias,0,1,2.0282999999821185
17,4,bias,1,1,0.7892000000178814
17,5,bias,1,1,0.5901000000238419
17,6,bias,1,1,0.48540000000596045
17,7,bias,0,1,0.5692999999821186
17,8,bias,1,1,0.504300000011921
17,9,bias,0,1,0.5384000000059604
17,10,bias,0,0,0.5305999999940395
17,11,bias,0,1,0.47139999997615817
17,12,bias,0,1,0.44290000000596047
17,13,bias,0,1,0.45719999998807903
17,14,bias,0,1,0.4385
17,15,bias,1,1,0.5535999999940395
17,16,bias,1,1,0.6302000000178813
17,17,bias,1,1,1.016199999988079
17,18,bias,1,1,1.0006999999880792
17,19,bias,0,1,0.482199999988079
17,20,bias,1,1,0.6340999999940395
17,21,bias,0,1,0.7274000000059605
17,22,bias,0,1,0.41530000001192097
17,23,bias,1,1,0.5455999999940395
17,24,bias,0,1,0.5104000000059604
17,2,no_bias,0,1,0.8989000000059605
17,3,no_bias,1,1,0.8429000000059604
17,4,no_bias,1,1,0.9050999999940396
17,5,no_bias,0,1,0.8424000000059605
17,6,no_bias,1,0,0.720300000011921
17,7,no_bias,1,0,0.5462000000178814
17,8,no_bias,0,1,0.445699999988079
17,9,no_bias,0,1,1.7692000000178814
17,10,no_bias,0,1,0.44659999999403954
17,11,no_bias,0,1,0.5005999999940396
17,12,no_bias,0,1,0.5413999999761582
17,13,no_bias,0,1,0.4835999999940395
17,14,no_bias,1,1,0.5
17,15,no_bias,0,1,0.9524000000059604
17,16,no_bias,0,1,0.4540999999940395
17,17,no_bias,0,1,0.5020999999940395
17,18,no_bias,1,1,0.497300000011921
17,19,no_bias,0,1,0.668
17,20,no_bias,1,0,0.45109999999403955
17,21,no_bias,1,0,0.492300000011921
17,22,no_bias,1,0,0.7673999999761582
17,23,no_bias,1,0,0.5797999999821186
17,24,no_bias,1,0,0.4699000000059605
17,25,no_bias,1,0,1.1838000000119209
17,26,no_bias,1,0,1.1459000000059605
17,27,no_bias,1,0,0.48740000000596045
17,28,no_bias,1,0,0.44140000000596047
17,29,no_bias,1,1,0.6833000000119209
17,30,no_bias,1,0,0.6210999999940395
17,31,no_bias,0,1,0.493300000011921
17,32,no_bias,1,0,0.428699999988079
17,33,no_bias,0,1,0.52
17,34,no_bias,1,0,0.4110999999940395
17,35,no_bias,0,1,0.446800000011921
17,36,no_bias,1,0,0.4765
17,37,no_bias,1,0,0.465
17,38,no_bias,0,1,0.45469999998807903
17,39,no_bias,0,1,0.432300000011921
17,40,no_bias,1,0,0.519
17,41,no_bias,0,1,0.4790999999940395
17,42,no_bias,0,1,0.452199999988079
17,43,no_bias,0,1,0.43490000000596046
17,44,no_bias,0,1,0.4675999999940395
17,45,no_bias,0,1,0.658800000011921
17,46,no_bias,1,0,0.4494000000059605
17,47,no_bias,0,1,0.432199999988079
17,48,no_bias,0,1,0.433699999988079
17,25,bias,1,0,1.6397000000178814
17,26,bias,1,1,1.355
17,27,bias,1,1,0.723
17,28,bias,0,1,0.706199999988079
17,29,bias,1,1,0.6088000000119209
17,30,bias,0,1,0.479
17,31,bias,0,1,0.6278000000119209
17,32,bias,1,0,0.48640000000596045
17,33,bias,1,1,0.9195
17,34,bias,0,1,0.5048999999761581
17,35,bias,0,1,0.46169999998807904
17,36,bias,1,0,0.7275999999940396
17,37,bias,1,0,2.008
17,38,bias,0,1,0.593300000011921
17,39,bias,0,1,0.608199999988079
17,40,bias,1,0,1.155
17,41,bias,0,1,0.8636999999880791
17,42,bias,0,1,0.44459999999403954
17,43,bias,0,1,0.4695999999940395
17,44,bias,1,0,0.5259000000059605
17,45,bias,1,0,0.9823000000119207
17,46,bias,0,1,0.49140000000596046
17,47,bias,1,1,1.848699999988079
17,48,bias,0,1,0.4867999999821186
17,49,bias,0,1,0.6530999999940396
17,50,bias,1,1,0.7654000000059604
17,51,bias,0,1,0.48230000001192097
17,52,bias,1,0,0.4720999999940395
17,53,bias,0,1,0.506
17,54,bias,1,1,0.9042999999821186
17,55,bias,0,1,0.442
17,56,bias,0,1,0.6447000000178814
17,57,bias,1,0,0.5761000000238419
17,58,bias,1,0,0.7789000000059605
17,59,bias,1,0,0.682
17,60,bias,1,0,0.6405999999940395
17,61,bias,0,1,0.5985
17,62,bias,0,1,0.5433000000119209
17,63,bias,0,1,0.4917000000178814
17,64,bias,1,0,0.4352999999821186
17,65,bias,0,1,0.6233000000119209
17,66,bias,1,0,0.518800000011921
17,67,bias,1,1,1.451
17,68,bias,1,1,1.3385
17,69,bias,1,0,0.8298000000119209
17,70,bias,0,1,0.47810000002384184
17,71,bias,0,1,0.5285999999940395
17,72,bias,0,1,0.6325999999940395
17,49,no_bias,1,0,0.5035
17,50,no_bias,0,1,0.46979999998211863
17,51,no_bias,1,1,0.7985999999940395
17,52,no_bias,0,1,0.47
17,53,no_bias,1,0,0.6584000000059604
17,54,no_bias,0,1,0.4539000000059605
17,55,no_bias,0,1,0.4587000000178814
17,56,no_bias,0,1,0.419699999988079
17,57,no_bias,1,1,1.1275
17,58,no_bias,1,0,0.8584000000059605
17,59,no_bias,0,1,0.422300000011921
17,60,no_bias,0,1,0.44759999999403954
17,61,no_bias,1,0,0.6955999999940395
17,62,no_bias,1,0,0.402300000011921
17,63,no_bias,0,1,0.4205
17,64,no_bias,0,1,0.466800000011921
17,65,no_bias,1,0,0.6118000000119209
17,66,no_bias,0,1,0.458
17,67,no_bias,1,0,0.4169000000059605
17,68,no_bias,1,1,1.0139000000059604
17,69,no_bias,0,1,0.4079000000059605
17,70,no_bias,1,0,0.39569999998807903
17,71,no_bias,0,1,0.4685999999940395
17,72,no_bias,1,1,0.782800000011921
17,73,bias,0,1,1.7659000000059604
17,74,bias,0,1,0.48740000000596045
17,75,bias,0,1,0.439
17,76,bias,0,1,0.5295999999940395
17,77,bias,1,0,0.6885999999940395
17,78,bias,1,0,0.5495999999940395
17,79,bias,1,0,0.6915999999940395
17,80,bias,0,1,0.5549000000059605
17,81,bias,1,0,0.5680999999940395
17,82,bias,1,0,0.8239000000059604
17,83,bias,0,1,0.5841000000238419
17,84,bias,0,1,0.44539999997615815
17,85,bias,0,1,0.45569999998807903
17,86,bias,1,0,0.5915
17,87,bias,1,0,0.5283999999761582
17,88,bias,0,1,0.471
17,89,bias,0,1,0.4845999999940395
17,90,bias,0,1,0.490800000011921
17,91,bias,1,0,0.533699999988079
17,92,bias,0,1,0.48660000002384185
17,93,bias,1,0,0.7960999999940396
17,94,bias,1,0,0.557
17,95,bias,1,0,0.3975
17,96,bias,1,0,0.4665999999940395
17,97,bias,1,0,2.175
17,98,bias,1,0,1.491
17,99,bias,1,0,0.45839999997615816
17,100,bias,0,1,0.511
17,101,bias,0,1,0.4297000000178814
17,102,bias,1,0,0.4501000000238419
17,103,bias,1,0,0.6095999999940396
17,104,bias,0,1,0.5090999999940395
17,105,bias,1,0,0.5886999999880791
17,106,bias,1,0,0.5491999999880791
17,107,bias,0,1,0.4009000000059605
17,108,bias,0,1,0.4775
17,109,bias,0,1,0.42640000000596046
17,110,bias,0,1,0.444300000011921
17,111,bias,1,1,0.7378000000119209
17,112,bias,0,1,0.440800000011921
17,113,bias,1,1,0.742
17,114,bias,0,1,0.447199999988079
17,115,bias,0,1,0.4575
17,116,bias,1,1,0.6591999999880791
17,117,bias,1,0,0.446
17,118,bias,1,0,0.45919999998807903
17,119,bias,0,1,0.5452000000178814
17,120,bias,0,1,0.3607000000178814
17,73,no_bias,0,1,2.243100000023842
17,74,no_bias,0,1,0.46519999998807904
17,75,no_bias,1,0,0.46
17,76,no_bias,0,1,0.4747000000178814
17,77,no_bias,0,1,0.41780000001192097
17,78,no_bias,1,1,1.0096999999880791
17,79,no_bias,0,1,0.4125999999940395
17,80,no_bias,1,0,0.417
17,81,no_bias,0,1,0.4554000000059605
17,82,no_bias,0,1,0.4744000000059605
17,83,no_bias,1,0,0.4199000000059605
17,84,no_bias,1,0,0.4135999999940395
17,85,no_bias,1,0,0.5612999999821187
17,86,no_bias,1,0,0.47380000001192096
17,87,no_bias,1,0,0.433
17,88,no_bias,0,1,0.5340999999940396
17,89,no_bias,0,1,0.5129000000059605
17,90,no_bias,1,0,0.386
17,91,no_bias,1,0,0.7067999999821186
17,92,no_bias,0,1,0.42080000001192097
17,93,no_bias,1,1,0.8060999999940396
17,94,no_bias,1,0,0.4347000000178814
17,95,no_bias,0,1,0.5385999999940395
17,96,no_bias,0,1,0.141
17,97,no_bias,1,0,0.5738000000119209
17,98,no_bias,1,1,1.2869000000059605
17,99,no_bias,1,0,0.4094000000059605
17,100,no_bias,1,0,0.4562999999821186
17,101,no_bias,0,1,0.4129000000059605
17,102,no_bias,1,0,2.0734000000059605
17,103,no_bias,0,1,0.44039999997615814
17,104,no_bias,1,1,0.8324000000059605
17,105,no_bias,0,1,0.5596999999880791
17,106,no_bias,0,1,0.5302999999821186
17,107,no_bias,0,1,0.503699999988079
17,108,no_bias,1,0,0.428699999988079
17,109,no_bias,0,1,0.415
17,110,no_bias,1,0,0.723300000011921
17,111,no_bias,0,1,0.5072999999821186
17,112,no_bias,0,1,0.492
17,113,no_bias,1,0,0.49540000000596046
17,114,no_bias,0,1,0.441699999988079
17,115,no_bias,1,0,0.564
17,116,no_bias,0,1,0.426199999988079
17,117,no_bias,1,0,0.6584000000059604
17,118,no_bias,1,0,0.6499000000059605
17,119,no_bias,0,1,0.49390000000596046
17,120,no_bias,0,1,0.445199999988079
17,121,no_bias,0,1,0.5035
17,122,no_bias,1,0,0.464800000011921
17,123,no_bias,1,1,0.6774000000059605
17,124,no_bias,0,1,0.460800000011921
17,125,no_bias,1,1,0.8083000000119209
17,126,no_bias,1,1,1.056699999988079
17,127,no_bias,1,0,0.3950999999940395
17,128,no_bias,0,1,0.4725999999940395
17,129,no_bias,1,1,0.6256999999880791
17,130,no_bias,0,1,0.537800000011921
17,131,no_bias,0,1,0.7683000000119209
17,132,no_bias,0,1,0.6900999999940395
17,133,no_bias,0,1,0.40920000001788137
17,134,no_bias,1,1,0.7547000000178814
17,135,no_bias,0,1,0.44109999999403954
17,136,no_bias,0,1,0.4065
17,137,no_bias,1,1,0.640699999988079
17,138,no_bias,1,0,0.5133000000119209
17,139,no_bias,0,1,0.4745999999940395
17,140,no_bias,1,1,0.7316999999880791
17,141,no_bias,1,0,0.9756999999880792
17,142,no_bias,0,1,0.5185999999940395
17,143,no_bias,1,0,0.474
17,144,no_bias,0,1,0.441199999988079
17,121,bias,1,0,0.4730999999940395
17,122,bias,0,1,0.42080000001192097
17,123,bias,0,1,0.414699999988079
17,124,bias,0,1,0.424699999988079
17,125,bias,1,0,0.4165
17,126,bias,1,0,0.47179999998211863
17,127,bias,1,0,0.4262999999821186
17,128,bias,0,1,0.482199999988079
17,129,bias,0,1,0.486800000011921
17,130,bias,1,0,0.5541999999880791
17,131,bias,1,0,0.9649000000059604
17,132,bias,1,1,0.9722000000178814
17,133,bias,0,1,1.1811999999880791
17,134,bias,0,1,0.47760000002384184
17,135,bias,0,1,0.46670000001788137
17,136,bias,1,1,0.817
17,137,bias,0,1,0.4459000000059605
17,138,bias,0,1,0.4535999999940395
17,139,bias,1,0,0.4292000000178814
17,140,bias,0,1,0.4100999999940395
17,141,bias,1,0,0.381300000011921
17,142,bias,1,0,0.4529000000059605
17,143,bias,0,1,0.458800000011921
17,144,bias,1,0,0.8065
19,2,no_bias,0,1,0.8251000000238419
19,3,no_bias,0,1,0.6458999999761581
19,4,no_bias,0,1,0.4665
19,5,no_bias,1,0,0.6001000000238419
19,6,no_bias,1,0,0.716199999988079
19,7,no_bias,0,1,0.554800000011921
19,8,no_bias,0,1,0.545
19,9,no_bias,1,1,1.525899999976158
19,10,no_bias,1,1,0.4554000000357628
19,11,no_bias,1,0,0.7352000000476837
19,12,no_bias,0,1,0.6196999999880791
19,13,no_bias,1,0,0.6529000000357628
19,14,no_bias,0,1,0.4849000000357628
19,15,no_bias,0,1,0.4552999999523163
19,16,no_bias,1,0,0.578
19,17,no_bias,0,1,0.529699999988079
19,18,no_bias,1,0,0.40780000001192096
19,19,no_bias,1,0,0.6165
19,20,no_bias,0,1,0.4665
19,21,no_bias,0,1,0.4591000000238419
19,22,no_bias,1,0,0.6215
19,23,no_bias,1,0,1.4065999999642371
19,24,no_bias,1,0,0.5648000000119209
19,1,bias,1,0,2.669600000023842
19,2,bias,0,1,1.1851999999880791
19,3,bias,1,0,0.473699999988079
19,4,bias,1,0,0.33959999996423723
19,5,bias,1,0,0.4542999999523163
19,6,bias,0,1,0.46369999998807904
19,7,bias,1,1,1.1380999999642372
19,8,bias,0,1,0.7021000000238419
19,9,bias,0,1,0.533800000011921
19,10,bias,1,0,0.7100999999642372
19,11,bias,1,0,0.916600000023842
19,12,bias,0,1,0.6245
19,13,bias,1,1,0.461800000011921
19,14,bias,0,1,0.6881000000238419
19,15,bias,1,1,0.9183000000119208
19,16,bias,0,1,0.6306000000238419
19,17,bias,1,0,0.6278000000119209
19,18,bias,1,0,0.5533000000119209
19,19,bias,0,1,0.5530999999642372
19,20,bias,0,1,0.48710000002384185
19,21,bias,0,1,0.39819999998807903
19,22,bias,1,0,0.6128000000119209
19,23,bias,0,1,0.29310000002384184
19,24,bias,0,1,0.3515
19,25,no_bias,1,1,2.5705
19,26,no_bias,1,1,0.4924000000357628
19,27,no_bias,0,1,2.139200000047684
19,28,no_bias,0,1,0.542
19,29,no_bias,1,1,0.4214000000357628
19,30,no_bias,0,1,0.5776000000238418
19,31,no_bias,1,1,0.409199999988079
19,32,no_bias,0,1,0.6198999999761582
19,33,no_bias,1,1,0.406
19,34,no_bias,0,1,0.4644000000357627
19,35,no_bias,1,1,0.3176999999880791
19,36,no_bias,0,0,1.359
19,37,no_bias,0,1,0.8268000000119209
19,38,no_bias,1,1,0.518
19,39,no_bias,0,0,0.636699999988079
19,40,no_bias,1,1,0.444300000011921
19,41,no_bias,1,1,0.3915999999642372
19,42,no_bias,0,1,0.6531000000238418
19,43,no_bias,1,1,0.48479999995231626
19,44,no_bias,1,1,0.4095
19,45,no_bias,0,1,0.451
19,46,no_bias,1,1,0.499800000011921
19,47,no_bias,0,1,0.6438999999761581
19,48,no_bias,0,1,0.5882999999523163
19,49,no_bias,0,1,3.557800000011921
19,50,no_bias,1,1,1.2642000000476834
19,51,no_bias,0,1,0.6638999999761581
19,52,no_bias,0,1,1.4665
19,53,no_bias,0,1,0.6663999999761582
19,54,no_bias,0,1,0.6188000000119209
19,55,no_bias,1,1,0.3533000000119209
19,56,no_bias,0,1,0.3856000000238418
19,57,no_bias,0,1,0.5475
19,58,no_bias,1,1,0.489300000011921
19,59,no_bias,1,1,0.363199999988079
19,60,no_bias,1,1,0.372
19,61,no_bias,0,1,0.5785999999642372
19,62,no_bias,0,1,0.8910999999642372
19,63,no_bias,0,1,0.917100000023842
19,64,no_bias,1,1,0.3714000000357628
19,65,no_bias,1,1,0.529800000011921
19,66,no_bias,1,1,0.486800000011921
19,67,no_bias,1,1,0.496699999988079
19,68,no_bias,1,1,0.41630000001192097
19,69,no_bias,1,1,0.34260000002384183
19,70,no_bias,1,1,0.25939999997615815
19,71,no_bias,0,1,0.496
19,72,no_bias,0,1,0.7668999999761581
19,25,bias,1,0,2.9281999999880792
19,26,bias,1,0,2.3983999999761583
19,27,bias,1,0,0.5423999999761582
19,28,bias,1,0,0.43960000002384186
19,29,bias,0,1,0.788699999988079
19,30,bias,0,1,0.5246000000238419
19,31,bias,0,1,0.429199999988079
19,32,bias,1,0,0.6675
19,33,bias,0,1,0.457300000011921
19,34,bias,0,1,0.477199999988079
19,35,bias,0,1,0.46739999997615816
19,36,bias,0,1,0.421699999988079
19,37,bias,0,1,0.5791000000238419
19,38,bias,1,0,0.5326000000238419
19,39,bias,0,1,0.476199999988079
19,40,bias,1,0,1.319100000023842
19,41,bias,1,0,0.5773000000119209
19,42,bias,0,1,0.620300000011921
19,43,bias,1,0,0.5221000000238418
19,44,bias,1,0,1.2271999999880792
19,45,bias,1,1,1.918899999976158
19,46,bias,0,1,0.602
19,47,bias,0,1,0.6354000000357628
19,48,bias,1,0,0.6673000000119209
19,49,bias,0,1,1.946600000023842
19,50,bias,1,1,1.332699999988079
19,51,bias,0,1,0.6805
19,52,bias,1,1,0.4858999999761581
19,53,bias,1,1,0.38789999997615815
19,54,bias,1,1,0.3508000000119209
19,55,bias,1,1,0.421800000011921
19,56,bias,1,1,0.385199999988079
19,57,bias,0,1,0.6016999999880791
19,58,bias,0,1,0.7016000000238418
19,59,bias,0,1,0.6361999999880791
19,60,bias,1,0,1.0575999999642371
19,61,bias,0,1,0.49360000002384186
19,62,bias,1,1,0.3062000000476837
19,63,bias,0,1,0.7237000000476838
19,64,bias,0,1,0.411
19,65,bias,0,1,0.4521000000238419
19,66,bias,0,1,0.45389999997615815
19,67,bias,0,1,0.3965999999642372
19,68,bias,1,1,0.495199999988079
19,69,bias,1,1,0.3962999999523163
19,70,bias,0,1,0.8116000000238418
19,71,bias,1,1,0.305
19,72,bias,1,1,0.41979999995231626
19,73,no_bias,1,0,2.2515
19,74,no_bias,0,1,1.084699999988079
19,75,no_bias,1,0,0.777
19,76,no_bias,1,0,0.950600000023842
19,77,no_bias,0,1,0.5516000000238419
19,78,no_bias,1,0,0.39969999998807904
19,79,no_bias,1,0,0.32680000001192094
19,80,no_bias,0,1,0.7234000000357628
19,81,no_bias,1,0,0.6908999999761581
19,82,no_bias,0,1,0.49710000002384186
19,83,no_bias,1,0,0.47310000002384184
19,84,no_bias,1,0,0.6226999999880791
19,85,no_bias,0,1,0.442800000011921
19,86,no_bias,0,1,0.4878999999761581
19,87,no_bias,0,1,0.5425999999642372
19,88,no_bias,1,1,0.4639000000357627
19,89,no_bias,0,1,0.452300000011921
19,90,no_bias,1,1,0.5644000000357627
19,91,no_bias,0,1,0.8446999999880791
19,92,no_bias,0,1,0.461300000011921
19,93,no_bias,0,1,0.533
19,94,no_bias,0,1,0.5325
19,95,no_bias,1,1,0.454
19,96,no_bias,1,0,0.5766999999880791
19,97,no_bias,0,1,2.268399999976158
19,98,no_bias,0,1,0.5334000000357628
19,99,no_bias,1,1,0.466800000011921
19,100,no_bias,1,1,0.3185
19,101,no_bias,0,1,0.7464000000357628
19,102,no_bias,1,1,0.4394000000357628
19,103,no_bias,1,1,0.43289999997615813
19,104,no_bias,0,1,0.6312999999523163
19,105,no_bias,0,1,0.5381000000238418
19,106,no_bias,0,1,0.5563000000119209
19,107,no_bias,0,1,0.6458999999761581
19,108,no_bias,1,1,0.8819000000357627
19,109,no_bias,0,1,0.8682000000476837
19,110,no_bias,0,1,0.3970999999642372
19,111,no_bias,0,1,0.5001000000238418
19,112,no_bias,1,1,0.5105
19,113,no_bias,1,0,0.6998000000119209
19,114,no_bias,0,1,0.5321999999880791
19,115,no_bias,1,1,0.5879000000357628
19,116,no_bias,1,1,0.3510999999642372
19,117,no_bias,1,1,0.5428999999761581
19,118,no_bias,0,1,0.779800000011921
19,119,no_bias,1,1,0.33370000004768374
19,120,no_bias,1,0,3.466599999964237
19,73,bias,0,1,1.658600000023842
19,74,bias,1,1,0.6014000000357628
19,75,bias,1,0,1.745600000023842
19,76,bias,0,1,0.5579000000357628
19,77,bias,0,1,0.5672999999523163
19,78,bias,1,1,0.8221000000238419
19,79,bias,0,1,0.6451000000238418
19,80,bias,0,1,0.5123000000119209
19,81,bias,0,1,0.40830000001192096
19,82,bias,1,0,1.114
19,83,bias,1,0,1.008899999976158
19,84,bias,0,1,0.4649000000357627
19,85,bias,0,1,0.41680000001192097
19,86,bias,0,1,0.5103999999761581
19,87,bias,1,1,2.029600000023842
19,88,bias,1,0,0.8815
19,89,bias,1,0,0.8104000000357627
19,90,bias,1,1,0.4900999999642372
19,91,bias,1,1,0.6440999999642372
19,92,bias,0,0,0.7551999999880791
19,93,bias,1,1,0.362199999988079
19,94,bias,0,1,0.506300000011921
19,95,bias,1,0,0.656800000011921
19,96,bias,0,1,0.6793000000119209
19,97,bias,1,0,1.428300000011921
19,98,bias,1,1,0.3230999999642372
19,99,bias,0,1,0.488300000011921
19,100,bias,1,0,0.5766999999880791
19,101,bias,0,1,0.4282000000476837
19,102,bias,1,0,0.5776999999880791
19,103,bias,0,1,0.578
19,104,bias,0,1,0.565199999988079
19,105,bias,1,0,1.397300000011921
19,106,bias,1,0,0.47710000002384184
19,107,bias,1,1,0.54
19,108,bias,0,1,0.3725
19,109,bias,1,1,0.386
19,110,bias,0,0,0.6425
19,111,bias,1,0,0.5008000000119209
19,112,bias,0,1,0.553800000011921
19,113,bias,0,1,0.4430999999642372
19,114,bias,1,1,0.6886999999880791
19,115,bias,1,1,0.5641999999880791
19,116,bias,0,1,0.505
19,117,bias,0,1,0.5441999999880791
19,118,bias,0,1,0.426699999988079
19,119,bias,1,0,0.372
19,120,bias,0,1,0.540800000011921
19,121,bias,1,1,1.0219000000357628
19,122,bias,0,1,0.8371000000238419
19,123,bias,1,1,0.371699999988079
19,124,bias,0,1,0.39869999998807903
19,125,bias,0,1,0.4535
19,126,bias,0,1,0.3321999999880791
19,127,bias,1,1,0.5077999999523163
19,128,bias,1,1,1.468
19,129,bias,1,1,0.37289999997615814
19,130,bias,0,1,0.6113999999761581
19,131,bias,1,1,0.37710000002384186
19,132,bias,1,1,0.47460000002384184
19,133,bias,1,1,0.5510999999642372
19,134,bias,1,1,0.491699999988079
19,135,bias,0,0,0.6268000000119209
19,136,bias,0,1,0.49760000002384186
19,137,bias,0,1,0.3827999999523163
19,138,bias,1,1,0.497300000011921
19,139,bias,1,0,1.632599999964237
19,140,bias,1,1,0.2716999999880791
19,141,bias,0,1,0.9253000000119208
19,142,bias,0,1,2.2897999999523164
19,143,bias,0,1,0.6321999999880791
19,144,bias,0,1,0.432199999988079
19,122,no_bias,0,1,0.609199999988079
19,123,no_bias,0,1,0.601300000011921
19,124,no_bias,0,1,0.4525
19,125,no_bias,1,0,0.4758999999761581
19,126,no_bias,1,0,0.9342000000476836
19,127,no_bias,0,1,0.5784000000357628
19,128,no_bias,1,0,0.31760000002384187
19,129,no_bias,0,1,0.3381999999880791
19,130,no_bias,1,0,0.477199999988079
19,131,no_bias,1,0,0.7584000000357628
19,132,no_bias,1,0,0.31519999998807907
19,133,no_bias,1,0,0.3359000000357628
19,134,no_bias,1,0,0.5195999999642372
19,135,no_bias,0,1,0.3727000000476837
19,136,no_bias,0,1,0.6105999999642372
19,137,no_bias,0,1,0.3940999999642372
19,138,no_bias,0,1,0.461300000011921
19,139,no_bias,1,0,0.6186999999880791
19,140,no_bias,1,0,0.41660000002384184
19,141,no_bias,0,1,0.5333000000119209
19,142,no_bias,0,1,0.6300999999642373
19,143,no_bias,1,0,0.4335
19,144,no_bias,0,1,0.7333999999761581
