id,condition,angle,rt,accuracy,trial
1,egocentric,-45,1660,1,0
1,egocentric,-135,2717,1,1
1,egocentric,180,1734,1,2
1,egocentric,90,1329,1,3
1,egocentric,-135,1435,1,4
1,egocentric,90,1420,1,5
1,egocentric,-135,1387,1,6
1,egocentric,45,1319,1,7
1,egocentric,-90,1687,1,8
1,egocentric,-90,1302,1,9
1,egocentric,45,1567,0,10
1,egocentric,90,1184,1,11
1,egocentric,-135,928,0,12
1,egocentric,180,1017,0,13
1,egocentric,135,1138,0,14
1,egocentric,-45,1230,1,15
1,egocentric,90,1128,1,16
1,egocentric,180,1896,1,17
1,egocentric,45,1247,1,18
1,egocentric,0,853,1,19
1,egocentric,180,1495,1,20
1,egocentric,45,979,1,21
1,egocentric,-90,1046,1,22
1,egocentric,-45,937,1,23
1,egocentric,180,1580,0,24
1,egocentric,135,979,1,25
1,egocentric,0,1046,1,26
1,egocentric,45,945,1,27
1,egocentric,135,1078,1,28
1,egocentric,-45,1066,1,29
1,egocentric,-45,971,1,30
1,egocentric,-90,1188,1,31
1,egocentric,0,882,1,32
1,egocentric,-45,1114,1,33
1,egocentric,-90,868,1,34
1,egocentric,-135,1019,1,35
1,egocentric,0,891,1,36
1,egocentric,135,1169,0,37
1,egocentric,180,796,0,38
1,egocentric,45,696,1,39
1,egocentric,45,749,1,40
1,egocentric,135,887,1,41
1,egocentric,90,897,0,42
1,egocentric,-90,797,1,43
1,egocentric,0,619,1,44
1,egocentric,-90,763,1,45
1,egocentric,90,934,1,46
1,egocentric,180,617,0,47
1,egocentric,45,2601,0,48
1,egocentric,90,1306,1,49
1,egocentric,90,1319,1,50
1,egocentric,180,2170,1,51
1,egocentric,-45,2863,1,52
1,egocentric,90,1396,1,53
1,egocentric,180,2952,1,54
1,egocentric,135,2865,1,55
1,egocentric,-90,1529,1,56
1,egocentric,135,4030,1,57
1,egocentric,-45,1164,1,58
1,egocentric,180,1262,1,59
1,egocentric,-135,1195,1,60
1,egocentric,0,852,1,61
1,egocentric,90,781,1,62
1,egocentric,-90,1096,0,63
1,egocentric,45,751,1,64
1,egocentric,-135,829,0,65
1,egocentric,135,879,1,66
1,egocentric,-135,1250,1,67
1,egocentric,0,1101,1,68
1,egocentric,-45,1586,1,69
1,egocentric,-135,1805,1,70
1,egocentric,-45,802,1,71
1,egocentric,0,1467,1,72
1,egocentric,45,1003,1,73
1,egocentric,-90,1134,1,74
1,egocentric,0,933,1,75
1,egocentric,-45,781,1,76
1,egocentric,45,803,1,77
1,egocentric,-45,783,1,78
1,egocentric,0,652,1,79
1,egocentric,0,670,1,80
1,egocentric,0,584,1,81
1,egocentric,-90,829,1,82
1,egocentric,135,1114,1,83
1,egocentric,-90,1037,1,84
1,egocentric,45,781,1,85
1,egocentric,-135,862,1,86
1,egocentric,180,1249,1,87
1,egocentric,135,1064,0,88
1,egocentric,90,797,1,89
1,egocentric,0,747,1,90
1,egocentric,135,996,1,91
1,egocentric,135,932,1,92
1,egocentric,180,929,0,93
1,egocentric,-135,1002,1,94
1,egocentric,-90,899,1,95
1,egocentric,90,784,1,96
1,egocentric,180,2395,1,97
1,egocentric,-45,1331,1,98
1,egocentric,0,3434,1,99
1,egocentric,-135,1823,1,100
1,egocentric,90,1834,1,101
1,egocentric,135,3397,1,102
1,egocentric,-135,2587,1,103
1,egocentric,90,1052,1,104
1,egocentric,45,730,1,105
1,egocentric,45,1488,1,106
1,egocentric,-135,1783,1,107
1,egocentric,135,1371,1,108
1,egocentric,-90,865,1,109
1,egocentric,180,1389,1,110
1,allocentric,135,1057,1,0
1,allocentric,0,948,1,1
1,allocentric,0,857,1,2
1,allocentric,-90,1636,1,3
1,allocentric,90,1208,1,4
1,allocentric,-90,949,1,5
1,allocentric,-90,1350,1,6
1,allocentric,-135,1817,1,7
1,allocentric,180,2067,1,8
1,allocentric,90,1322,1,9
1,allocentric,-45,1519,1,10
1,allocentric,0,1615,1,11
1,allocentric,0,566,1,12
1,allocentric,135,1498,1,13
1,allocentric,-90,1539,1,14
1,allocentric,45,1218,1,15
1,allocentric,0,1287,1,16
1,allocentric,90,1222,1,17
1,allocentric,90,2919,1,18
1,allocentric,45,1415,1,19
1,allocentric,0,1247,1,20
1,allocentric,-90,2508,1,21
1,allocentric,0,1135,1,22
1,allocentric,180,1716,1,23
1,allocentric,45,1097,1,24
1,allocentric,-135,1238,0,25
1,allocentric,-45,1353,1,26
1,allocentric,135,1899,1,27
1,allocentric,135,2204,1,28
1,allocentric,180,4737,1,29
1,allocentric,135,1415,1,30
1,allocentric,45,2239,1,31
1,allocentric,180,2337,1,32
1,allocentric,-135,1116,1,33
1,allocentric,-90,1031,1,34
1,allocentric,45,1016,1,35
1,allocentric,-135,1350,1,36
1,allocentric,180,1204,1,37
1,allocentric,180,3050,1,38
1,allocentric,0,1149,1,39
1,allocentric,-45,973,1,40
1,allocentric,90,1300,1,41
1,allocentric,-45,1053,1,42
1,allocentric,-90,1265,1,43
1,allocentric,45,1498,1,44
1,allocentric,180,1249,1,45
1,allocentric,-135,1369,1,46
1,allocentric,45,2320,1,47
1,allocentric,-135,1273,1,48
1,allocentric,135,1069,1,49
1,allocentric,-45,1232,1,50
1,allocentric,-90,1353,1,51
1,allocentric,0,852,1,52
1,allocentric,90,1055,1,53
1,allocentric,-90,1014,1,54
1,allocentric,0,733,1,55
1,allocentric,90,953,1,56
1,allocentric,135,1814,1,57
1,allocentric,-45,1020,1,58
1,allocentric,90,1016,1,59
1,allocentric,-90,855,1,60
1,allocentric,-135,1037,1,61
1,allocentric,-90,747,1,62
1,allocentric,-135,1024,1,63
1,allocentric,-45,564,1,64
1,allocentric,180,1281,1,65
1,allocentric,-90,1230,1,66
1,allocentric,-45,698,1,67
1,allocentric,135,783,0,68
1,allocentric,135,965,1,69
1,allocentric,180,2071,1,70
1,allocentric,-45,1570,1,71
1,allocentric,-45,1588,1,72
1,allocentric,0,1015,1,73
1,allocentric,-135,1281,1,74
1,allocentric,90,1283,1,75
1,allocentric,45,869,1,76
1,allocentric,135,2065,1,77
1,allocentric,45,1322,1,78
1,allocentric,180,2331,1,79
1,allocentric,-135,1375,1,80
1,allocentric,45,1288,1,81
1,allocentric,-135,1016,1,82
1,allocentric,135,1508,1,83
1,allocentric,-45,1405,1,84
1,allocentric,180,2567,1,85
1,allocentric,180,1025,1,86
1,allocentric,45,1153,1,87
1,allocentric,-45,1531,1,88
1,allocentric,90,1086,1,89
1,allocentric,-45,1031,1,90
1,allocentric,0,949,1,91
1,allocentric,-90,1074,1,92
1,allocentric,90,1291,1,93
1,allocentric,-45,1321,1,94
1,allocentric,45,852,1,95
1,allocentric,-135,1781,1,96
1,allocentric,45,699,1,97
1,allocentric,135,2652,1,98
1,allocentric,-135,2531,1,99
1,allocentric,-90,1133,1,100
1,allocentric,90,1067,1,101
1,allocentric,135,1454,1,102
1,allocentric,0,1571,1,103
1,allocentric,90,872,1,104
1,allocentric,180,1085,1,105
1,allocentric,0,584,1,106
1,allocentric,90,1083,1,107
1,allocentric,180,1186,1,108
1,allocentric,45,1169,1,109
1,allocentric,135,1022,1,110
2,egocentric,135,864.09,1,0
2,egocentric,180,800.865,1,1
2,egocentric,-90,1418.14,1,2
2,egocentric,-90,751.675,1,3
2,egocentric,-135,917.615,1,4
2,egocentric,-90,1238.425,1,5
2,egocentric,90,1073.99,1,6
2,egocentric,135,1701.04,1,7
2,egocentric,-45,793.135,1,8
2,egocentric,45,1168.09,1,9
2,egocentric,-90,951.04,1,10
2,egocentric,180,840.145,1,11
2,egocentric,-90,982.915,1,12
2,egocentric,-90,1651.03,1,13
2,egocentric,90,974.81,1,14
2,egocentric,-90,954.915,1,15
2,egocentric,90,792.05,1,16
2,egocentric,-135,1801.67,1,17
2,egocentric,0,931.06,1,18
2,egocentric,90,984.065,1,19
2,egocentric,45,633.965,1,20
2,egocentric,135,1485.17,1,21
2,egocentric,45,637.64,1,22
2,egocentric,-135,1417.845,1,23
2,egocentric,135,1137.73,1,24
2,egocentric,45,702.955,1,25
2,egocentric,0,607.02,1,26
2,egocentric,-45,700.2,1,27
2,egocentric,-135,940.04,1,28
2,egocentric,-45,587.735,1,29
2,egocentric,135,1016.21,1,30
2,egocentric,180,1003.55,1,31
2,egocentric,-45,786.025,1,32
2,egocentric,90,1167.395,1,33
2,egocentric,-135,1283.635,1,34
2,egocentric,-45,701.48,1,35
2,egocentric,180,1067.15,1,36
2,egocentric,-45,633.14,1,37
2,egocentric,45,702.06,1,38
2,egocentric,0,784.325,1,39
2,egocentric,90,1218.445,1,40
2,egocentric,135,1934.105,1,41
2,egocentric,90,1385.96,1,42
2,egocentric,0,785.285,1,43
2,egocentric,180,885.945,1,44
2,egocentric,0,750.435,1,45
2,egocentric,-90,857.68,1,46
2,egocentric,45,1052.09,1,47
2,egocentric,45,630.36,1,48
2,egocentric,135,638.385,1,49
2,egocentric,180,1134.03,1,50
2,egocentric,90,684.93,1,51
2,egocentric,-90,666.965,1,52
2,egocentric,180,1383.3,1,53
2,egocentric,-135,2040.7,1,54
2,egocentric,45,1780.815,1,55
2,egocentric,180,1640.14,1,56
2,egocentric,180,1475.58,1,57
2,egocentric,90,1055.195,1,58
2,egocentric,90,818.175,1,59
2,egocentric,0,867.77,1,60
2,egocentric,0,1233.915,1,61
2,egocentric,-45,600.91,1,62
2,egocentric,-90,684.58,1,63
2,egocentric,45,584.21,1,64
2,egocentric,-135,1042.135,1,65
2,egocentric,-45,1240.075,1,66
2,egocentric,-90,789.665,1,67
2,egocentric,180,1100.83,1,68
2,egocentric,-90,1437.62,1,69
2,egocentric,0,810.505,1,70
2,egocentric,-135,1133.78,1,71
2,egocentric,-135,1325.725,1,72
2,egocentric,-45,758.595,1,73
2,egocentric,135,735.75,1,74
2,egocentric,-45,853.815,1,75
2,egocentric,0,617.795,1,76
2,egocentric,135,700.65,1,77
2,egocentric,45,556.295,1,78
2,egocentric,90,656.5,1,79
2,egocentric,-135,701.69,1,80
2,egocentric,180,1019.095,1,81
2,egocentric,90,1068.22,1,82
2,egocentric,0,619.19,1,83
2,egocentric,-135,950.77,1,84
2,egocentric,-135,702.285,1,85
2,egocentric,0,601.65,1,86
2,egocentric,90,692.635,1,87
2,egocentric,180,1285.53,1,88
2,egocentric,-90,1050.84,1,89
2,egocentric,0,783.755,1,90
2,egocentric,-45,684.28,1,91
2,egocentric,135,1051.02,1,92
2,egocentric,45,684.62,1,93
2,egocentric,0,784.27,1,94
2,egocentric,135,842.36,1,95
2,egocentric,0,703.855,1,96
2,egocentric,180,1123.52,1,97
2,egocentric,90,883.885,1,98
2,egocentric,135,1568.87,1,99
2,egocentric,-135,903.755,1,100
2,egocentric,135,772.325,1,101
2,egocentric,180,1358.76,1,102
2,egocentric,-135,917.485,1,103
2,egocentric,135,1268.26,1,104
2,egocentric,-45,716.76,1,105
2,egocentric,45,820,1,106
2,egocentric,45,757.395,1,107
2,egocentric,-45,721.935,1,108
2,egocentric,-90,1085.055,1,109
2,egocentric,45,1434.365,1,110
2,allocentric,-90,1196.24,1,0
2,allocentric,135,1305.925,1,1
2,allocentric,135,1484.095,1,2
2,allocentric,90,1358.45,1,3
2,allocentric,0,949.94,1,4
2,allocentric,90,1678.895,1,5
2,allocentric,180,1808.975,1,6
2,allocentric,45,1241.035,1,7
2,allocentric,-135,2279.125,1,8
2,allocentric,-135,4879.29,1,9
2,allocentric,0,968.335,1,10
2,allocentric,-135,2578.645,1,11
2,allocentric,-90,1374.565,1,12
2,allocentric,-45,1410.67,1,13
2,allocentric,-90,1283.53,1,14
2,allocentric,0,1318.575,1,15
2,allocentric,0,865.4,1,16
2,allocentric,-90,1159.855,1,17
2,allocentric,180,1642.04,1,18
2,allocentric,135,1319.02,1,19
2,allocentric,45,1022.05,1,20
2,allocentric,90,1148.1,1,21
2,allocentric,135,4621.9,1,22
2,allocentric,180,2518.71,1,23
2,allocentric,-45,1396.41,1,24
2,allocentric,-45,1558.155,1,25
2,allocentric,-45,1241.77,1,26
2,allocentric,135,1180.615,1,27
2,allocentric,45,1026.69,1,28
2,allocentric,-135,1376.585,1,29
2,allocentric,-90,1123.08,1,30
2,allocentric,-135,1640.12,1,31
2,allocentric,180,1862.28,1,32
2,allocentric,0,1019.655,1,33
2,allocentric,45,1201.295,1,34
2,allocentric,90,1517.83,1,35
2,allocentric,90,1459.68,1,36
2,allocentric,180,2034.39,1,37
2,allocentric,-45,1160.44,1,38
2,allocentric,0,950.85,1,39
2,allocentric,-90,1768,1,40
2,allocentric,90,1200.965,1,41
2,allocentric,-45,1017.895,1,42
2,allocentric,180,1918.04,1,43
2,allocentric,-90,1109.73,1,44
2,allocentric,180,1484.795,1,45
2,allocentric,135,1800.915,1,46
2,allocentric,0,1221.21,1,47
2,allocentric,-135,1037.745,1,48
2,allocentric,-90,1284.645,1,49
2,allocentric,-45,866.42,1,50
2,allocentric,135,1701.11,1,51
2,allocentric,-135,2137.415,1,52
2,allocentric,180,1308.97,1,53
2,allocentric,90,1071.95,1,54
2,allocentric,135,1325.615,1,55
2,allocentric,-90,1037.995,1,56
2,allocentric,45,1034.91,1,57
2,allocentric,-90,1605.01,1,58
2,allocentric,-45,1251.26,1,59
2,allocentric,180,1839.135,1,60
2,allocentric,45,1018,1,61
2,allocentric,90,1337.33,1,62
2,allocentric,0,934.35,1,63
2,allocentric,-90,903.69,1,64
2,allocentric,-135,1134.22,1,65
2,allocentric,180,2007.36,1,66
2,allocentric,-45,1006.425,1,67
2,allocentric,45,1601.12,1,68
2,allocentric,-135,2268.43,1,69
2,allocentric,-45,2322.265,1,70
2,allocentric,45,1250.665,1,71
2,allocentric,-135,3219.375,1,72
2,allocentric,0,769.225,1,73
2,allocentric,-45,940.61,1,74
2,allocentric,-135,1418.375,1,75
2,allocentric,135,1785.025,1,76
2,allocentric,90,1817.865,1,77
2,allocentric,180,1885.25,1,78
2,allocentric,45,1251.27,1,79
2,allocentric,-45,1272.85,1,80
2,allocentric,135,1387.715,1,81
2,allocentric,135,1089.5,1,82
2,allocentric,45,1702.1,1,83
2,allocentric,90,1818.985,1,84
2,allocentric,-90,1187.36,1,85
2,allocentric,-45,984.18,1,86
2,allocentric,0,901.85,1,87
2,allocentric,-90,1122.12,1,88
2,allocentric,45,985.67,1,89
2,allocentric,-90,1586.45,1,90
2,allocentric,135,1224.165,1,91
2,allocentric,135,1524.23,1,92
2,allocentric,45,1250.88,1,93
2,allocentric,0,790.885,1,94
2,allocentric,90,1218.115,1,95
2,allocentric,0,801.295,1,96
2,allocentric,90,1050.975,1,97
2,allocentric,0,884.275,1,98
2,allocentric,135,1394.03,1,99
2,allocentric,-135,1302.29,1,100
2,allocentric,90,1372.41,1,101
2,allocentric,180,1507.3,1,102
2,allocentric,180,1426.12,1,103
2,allocentric,0,959.52,1,104
2,allocentric,45,1157.895,1,105
2,allocentric,90,1051.665,1,106
2,allocentric,180,2427.345,1,107
2,allocentric,-135,1393.03,1,108
2,allocentric,-45,1100.905,1,109
2,allocentric,45,923.4,1,110
3,allocentric,180,2346,1,0
3,allocentric,135,1502,1,1
3,allocentric,90,1324,1,2
3,allocentric,90,1976,1,3
3,allocentric,135,2897,1,4
3,allocentric,45,1459,1,5
3,allocentric,90,1994,1,6
3,allocentric,135,2492,1,7
3,allocentric,-135,1853,1,8
3,allocentric,-45,1458,1,9
3,allocentric,0,1307,1,10
3,allocentric,135,2883,1,11
3,allocentric,180,1122,0,12
3,allocentric,-90,2955,1,13
3,allocentric,-135,2059,1,14
3,allocentric,0,1240,1,15
3,allocentric,-45,1017,1,16
3,allocentric,45,1749,1,17
3,allocentric,90,1312,1,18
3,allocentric,135,3663,1,19
3,allocentric,45,2287,0,20
3,allocentric,45,3171,1,21
3,allocentric,90,4689,1,22
3,allocentric,-135,3305,1,23
3,allocentric,45,1642,1,24
3,allocentric,90,2824,1,25
3,allocentric,-135,3564,1,26
3,allocentric,-135,2259,1,27
3,allocentric,135,3752,1,28
3,allocentric,-90,1541,1,29
3,allocentric,45,1561,1,30
3,allocentric,45,1761,1,31
3,allocentric,0,949,1,32
3,allocentric,180,3959,1,33
3,allocentric,180,2802,1,34
3,allocentric,45,2183,1,35
3,allocentric,-45,2864,1,36
3,allocentric,180,2563,1,37
3,allocentric,90,1771,1,38
3,allocentric,-135,2055,1,39
3,allocentric,-135,2129,1,40
3,allocentric,90,3368,1,41
3,allocentric,0,1820,1,42
3,allocentric,-45,1770,1,43
3,allocentric,0,1909,1,44
3,allocentric,-135,5838,1,45
3,allocentric,180,4153,1,46
3,allocentric,90,1783,1,47
3,allocentric,45,2452,1,48
3,allocentric,0,1536,1,49
3,allocentric,0,937,1,50
3,allocentric,45,1644,1,51
3,allocentric,-90,1384,1,52
3,allocentric,90,2003,1,53
3,allocentric,-45,1279,1,54
3,allocentric,180,5574,1,55
3,allocentric,135,5274,1,56
3,allocentric,180,3359,1,57
3,allocentric,-45,1132,1,58
3,allocentric,-45,1673,1,59
3,allocentric,180,4686,1,60
3,allocentric,-90,3255,1,61
3,allocentric,45,2030,1,62
3,allocentric,-135,3636,1,63
3,allocentric,135,5037,1,64
3,allocentric,90,1677,1,65
3,allocentric,-90,2157,1,66
3,allocentric,0,1669,1,67
3,allocentric,-135,1808,1,68
3,allocentric,-90,2208,1,69
3,allocentric,135,3307,1,70
3,allocentric,0,1505,1,71
3,allocentric,-90,1396,1,72
3,allocentric,-90,1886,1,73
3,allocentric,45,1106,1,74
3,allocentric,90,1629,1,75
3,allocentric,135,2103,1,76
3,allocentric,-135,3491,1,77
3,allocentric,135,1255,1,78
3,allocentric,-90,1167,1,79
3,allocentric,-90,2201,1,80
3,allocentric,45,3053,1,81
3,allocentric,-45,2206,1,82
3,allocentric,-90,1735,1,83
3,allocentric,0,1059,1,84
3,allocentric,180,1863,1,85
3,allocentric,-45,1475,1,86
3,allocentric,0,1404,1,87
3,allocentric,-90,2482,1,88
3,allocentric,-135,4100,1,89
3,allocentric,-90,2174,1,90
3,allocentric,45,2324,1,91
3,allocentric,-90,1726,1,92
3,allocentric,-45,4029,1,93
3,allocentric,180,2802,1,94
3,allocentric,-45,2505,1,95
3,allocentric,90,1817,1,96
3,allocentric,-135,2213,1,97
3,allocentric,135,3791,1,98
3,allocentric,0,1050,1,99
3,allocentric,0,753,1,100
3,allocentric,90,2021,1,101
3,allocentric,180,2698,1,102
3,allocentric,-45,1615,1,103
3,allocentric,-45,1540,1,104
3,allocentric,135,2049,1,105
3,allocentric,-45,1225,1,106
3,allocentric,180,1546,1,107
3,allocentric,135,1519,1,108
3,allocentric,180,1949,1,109
3,allocentric,0,975,1,110
3,egocentric,180,1116,1,0
3,egocentric,-90,1148,1,1
3,egocentric,180,1131,1,2
3,egocentric,90,835,1,3
3,egocentric,-45,890,1,4
3,egocentric,45,793,1,5
3,egocentric,90,754,1,6
3,egocentric,180,932,1,7
3,egocentric,-135,964,1,8
3,egocentric,135,977,1,9
3,egocentric,-135,1861,1,10
3,egocentric,-45,748,1,11
3,egocentric,-45,746,1,12
3,egocentric,135,942,1,13
3,egocentric,135,813,1,14
3,egocentric,135,784,1,15
3,egocentric,90,770,1,16
3,egocentric,-90,620,1,17
3,egocentric,-135,930,1,18
3,egocentric,45,875,1,19
3,egocentric,0,655,1,20
3,egocentric,180,796,1,21
3,egocentric,45,687,1,22
3,egocentric,135,636,1,23
3,egocentric,45,740,1,24
3,egocentric,-135,665,1,25
3,egocentric,90,542,1,26
3,egocentric,-135,699,1,27
3,egocentric,0,571,1,28
3,egocentric,180,831,1,29
3,egocentric,0,697,1,30
3,egocentric,0,883,1,31
3,egocentric,180,1220,1,32
3,egocentric,135,679,1,33
3,egocentric,-45,1030,1,34
3,egocentric,90,753,1,35
3,egocentric,45,787,1,36
3,egocentric,-90,1421,1,37
3,egocentric,180,722,1,38
3,egocentric,135,604,1,39
3,egocentric,-45,545,1,40
3,egocentric,90,740,1,41
3,egocentric,0,493,1,42
3,egocentric,0,456,1,43
3,egocentric,135,678,1,44
3,egocentric,-135,948,1,45
3,egocentric,-45,890,1,46
3,egocentric,-90,694,1,47
3,egocentric,-90,799,1,48
3,egocentric,-90,1122,1,49
3,egocentric,-45,791,1,50
3,egocentric,-45,621,1,51
3,egocentric,-45,582,1,52
3,egocentric,-135,904,1,53
3,egocentric,90,617,1,54
3,egocentric,0,497,1,55
3,egocentric,90,704,1,56
3,egocentric,-135,690,1,57
3,egocentric,-90,559,1,58
3,egocentric,135,1232,1,59
3,egocentric,135,596,1,60
3,egocentric,-45,559,1,61
3,egocentric,180,905,1,62
3,egocentric,0,680,1,63
3,egocentric,-135,1219,1,64
3,egocentric,-90,579,1,65
3,egocentric,-90,591,1,66
3,egocentric,-90,1595,1,67
3,egocentric,135,1464,1,68
3,egocentric,180,1189,1,69
3,egocentric,45,755,1,70
3,egocentric,45,628,1,71
3,egocentric,45,613,1,72
3,egocentric,45,707,1,73
3,egocentric,0,591,1,74
3,egocentric,90,701,1,75
3,egocentric,90,908,1,76
3,egocentric,135,920,1,77
3,egocentric,45,670,1,78
3,egocentric,-90,654,1,79
3,egocentric,-135,613,1,80
3,egocentric,45,511,1,81
3,egocentric,-90,577,1,82
3,egocentric,-45,584,1,83
3,egocentric,180,1186,1,84
3,egocentric,-135,1385,1,85
3,egocentric,-135,1381,1,86
3,egocentric,135,651,1,87
3,egocentric,135,685,1,88
3,egocentric,180,687,1,89
3,egocentric,0,571,1,90
3,egocentric,0,615,1,91
3,egocentric,-135,1190,1,92
3,egocentric,45,680,1,93
3,egocentric,90,645,1,94
3,egocentric,90,1052,1,95
3,egocentric,45,746,1,96
3,egocentric,0,708,1,97
3,egocentric,180,889,1,98
3,egocentric,0,601,1,99
3,egocentric,-45,612,1,100
3,egocentric,180,1056,1,101
3,egocentric,0,677,1,102
3,egocentric,-90,836,1,103
3,egocentric,90,657,1,104
3,egocentric,-45,795,1,105
3,egocentric,-90,735,1,106
3,egocentric,180,880,1,107
3,egocentric,-135,1059,1,108
3,egocentric,90,554,1,109
3,egocentric,45,705,1,110
4,egocentric,90,1076.41,1,0
4,egocentric,0,916.875,1,1
4,egocentric,45,928.365,1,2
4,egocentric,45,917.73,1,3
4,egocentric,180,1244.055,1,4
4,egocentric,-90,1203.465,1,5
4,egocentric,90,1039.415,1,6
4,egocentric,180,1835.765,1,7
4,egocentric,180,1940.085,1,8
4,egocentric,180,1483.26,1,9
4,egocentric,90,1510.56,1,10
4,egocentric,135,2919.425,1,11
4,egocentric,0,1679.94,1,12
4,egocentric,45,2160.735,1,13
4,egocentric,180,2568.81,1,14
4,egocentric,135,2582.14,1,15
4,egocentric,0,889.3,1,16
4,egocentric,-45,1216.195,1,17
4,egocentric,135,4505.725,1,18
4,egocentric,0,839.115,1,19
4,egocentric,-45,1419.245,1,20
4,egocentric,45,1169.82,1,21
4,egocentric,-90,1285.745,1,22
4,egocentric,-135,2286.61,1,23
4,egocentric,45,854.56,1,24
4,egocentric,90,1175.625,1,25
4,egocentric,-135,1373.52,1,26
4,egocentric,-135,1789.34,1,27
4,egocentric,180,2533.54,1,28
4,egocentric,-135,3473.625,1,29
4,egocentric,-90,751.345,1,30
4,egocentric,-135,3368.995,1,31
4,egocentric,45,1635.55,1,32
4,egocentric,-90,990.015,1,33
4,egocentric,90,1058.265,1,34
4,egocentric,45,911.075,1,35
4,egocentric,45,775.6,1,36
4,egocentric,135,1734.62,1,37
4,egocentric,135,1660.185,1,38
4,egocentric,-45,1612.275,1,39
4,egocentric,-45,1484.075,1,40
4,egocentric,180,3208.73,1,41
4,egocentric,-90,1752.17,1,42
4,egocentric,-45,1039.13,1,43
4,egocentric,0,1003.84,1,44
4,egocentric,-135,1901.67,1,45
4,egocentric,135,1694.82,1,46
4,egocentric,135,1534.57,1,47
4,egocentric,-135,1283.59,1,48
4,egocentric,0,983.385,1,49
4,egocentric,90,1650.44,1,50
4,egocentric,90,1167.76,1,51
4,egocentric,45,785.495,1,52
4,egocentric,0,686.56,1,53
4,egocentric,-90,850.69,1,54
4,egocentric,45,959.285,1,55
4,egocentric,0,921.025,1,56
4,egocentric,135,2334.805,1,57
4,egocentric,45,1065.365,1,58
4,egocentric,-45,817.84,1,59
4,egocentric,-90,951.715,1,60
4,egocentric,-90,1282.475,1,61
4,egocentric,180,2277.64,1,62
4,egocentric,45,1045.065,1,63
4,egocentric,90,1193.31,1,64
4,egocentric,-90,1160.465,1,65
4,egocentric,-135,1676.91,1,66
4,egocentric,-45,2066.99,1,67
4,egocentric,180,1702.525,1,68
4,egocentric,0,999.975,1,69
4,egocentric,135,1153.63,1,70
4,egocentric,-135,1843.18,1,71
4,egocentric,-135,3790.245,1,72
4,egocentric,-90,1790.965,1,73
4,egocentric,180,1444.965,1,74
4,egocentric,0,1450.77,1,75
4,egocentric,135,1195.905,1,76
4,egocentric,90,1336.635,1,77
4,egocentric,90,902.505,1,78
4,egocentric,-90,1068.775,1,79
4,egocentric,-90,900.85,1,80
4,egocentric,90,884.21,1,81
4,egocentric,0,752.04,1,82
4,egocentric,-45,710.075,1,83
4,egocentric,-45,670.97,1,84
4,egocentric,0,650.62,1,85
4,egocentric,180,3301.225,1,86
4,egocentric,-90,1166.685,1,87
4,egocentric,135,1685.16,1,88
4,egocentric,-135,NA,0,89
4,egocentric,45,1400.27,1,90
4,egocentric,-90,3021.635,1,91
4,egocentric,-45,1073.88,1,92
4,egocentric,0,638.565,1,93
4,egocentric,-45,1616.055,1,94
4,egocentric,90,2035.285,1,95
4,egocentric,45,2219.015,1,96
4,egocentric,135,2750.12,1,97
4,egocentric,90,1051.835,1,98
4,egocentric,0,922.335,1,99
4,egocentric,135,2346.02,1,100
4,egocentric,-45,1635.585,1,101
4,egocentric,-135,3685.67,1,102
4,egocentric,180,4120.365,1,103
4,egocentric,135,3443.04,1,104
4,egocentric,-135,1342.055,1,105
4,egocentric,180,7242.065,1,106
4,egocentric,-135,2334.345,1,107
4,egocentric,90,1602.295,1,108
4,egocentric,180,3316.88,1,109
4,egocentric,-45,2479.055,1,110
4,allocentric,0,1213.305,1,0
4,allocentric,-135,3252.29,1,1
4,allocentric,-90,1945.26,1,2
4,allocentric,-45,2270.985,1,3
4,allocentric,45,1422.4,1,4
4,allocentric,0,1201.055,1,5
4,allocentric,-135,2309.865,1,6
4,allocentric,135,5102.95,1,7
4,allocentric,90,1786.99,1,8
4,allocentric,-45,1510.175,1,9
4,allocentric,0,1012.915,1,10
4,allocentric,180,3312.91,1,11
4,allocentric,45,1405.07,1,12
4,allocentric,180,2204.56,1,13
4,allocentric,-90,2353.53,1,14
4,allocentric,90,1860.4,1,15
4,allocentric,180,2671.35,1,16
4,allocentric,45,2342.185,1,17
4,allocentric,180,3166.94,1,18
4,allocentric,90,1373.76,1,19
4,allocentric,-135,3527.355,1,20
4,allocentric,-135,2244.65,1,21
4,allocentric,45,1463.225,1,22
4,allocentric,135,3485.515,1,23
4,allocentric,-135,2717.505,1,24
4,allocentric,-135,2768.93,1,25
4,allocentric,90,4295.67,1,26
4,allocentric,45,1043.165,1,27
4,allocentric,-45,1401.765,1,28
4,allocentric,135,1974.065,1,29
4,allocentric,0,1956.215,1,30
4,allocentric,-90,1773.825,1,31
4,allocentric,90,1118.615,1,32
4,allocentric,135,3844.93,1,33
4,allocentric,0,3735.45,1,34
4,allocentric,-90,2599.595,1,35
4,allocentric,180,2804.565,1,36
4,allocentric,45,3157.565,1,37
4,allocentric,45,1042.96,1,38
4,allocentric,-90,4732.815,1,39
4,allocentric,180,6393.845,1,40
4,allocentric,-90,1712.545,1,41
4,allocentric,90,3844.785,1,42
4,allocentric,135,1436.605,1,43
4,allocentric,-90,3584.21,1,44
4,allocentric,45,2352.16,1,45
4,allocentric,45,1629.26,1,46
4,allocentric,-135,2601.375,1,47
4,allocentric,135,2871.855,1,48
4,allocentric,45,1108.215,1,49
4,allocentric,90,3918.24,1,50
4,allocentric,-90,NA,0,51
4,allocentric,45,1840.16,1,52
4,allocentric,135,2461.29,1,53
4,allocentric,-90,2657.03,1,54
4,allocentric,135,1801.705,1,55
4,allocentric,45,1687.095,1,56
4,allocentric,-45,1273.67,1,57
4,allocentric,180,1646.205,1,58
4,allocentric,-90,1060.22,1,59
4,allocentric,90,2161.425,1,60
4,allocentric,-45,1190.02,1,61
4,allocentric,-45,1918.515,1,62
4,allocentric,0,1017.57,1,63
4,allocentric,0,1185.35,1,64
4,allocentric,135,2012.76,1,65
4,allocentric,0,1085.575,1,66
4,allocentric,-135,3346.74,1,67
4,allocentric,-90,1735.14,1,68
4,allocentric,-135,2525.13,1,69
4,allocentric,-135,2186.425,1,70
4,allocentric,180,2686.92,1,71
4,allocentric,-90,1374.13,1,72
4,allocentric,-90,1674.07,1,73
4,allocentric,135,6458.39,0,74
4,allocentric,90,1168.675,1,75
4,allocentric,-90,4990.425,1,76
4,allocentric,180,3005.405,1,77
4,allocentric,135,2006.315,1,78
4,allocentric,0,1018.475,1,79
4,allocentric,0,2573.19,1,80
4,allocentric,45,1086.33,1,81
4,allocentric,90,1475.365,1,82
4,allocentric,0,818.5,1,83
4,allocentric,180,1874.64,1,84
4,allocentric,-45,1372.625,1,85
4,allocentric,-135,3128.205,1,86
4,allocentric,90,1040.905,1,87
4,allocentric,-45,2601.55,1,88
4,allocentric,45,1394.32,1,89
4,allocentric,90,1202.345,1,90
4,allocentric,90,1102.23,1,91
4,allocentric,-135,4667.615,1,92
4,allocentric,180,1388.005,1,93
4,allocentric,180,1810.22,1,94
4,allocentric,90,1334.96,1,95
4,allocentric,135,2206.67,1,96
4,allocentric,-45,1587.615,1,97
4,allocentric,0,890.085,1,98
4,allocentric,-45,1258.875,1,99
4,allocentric,0,911.325,1,100
4,allocentric,0,637.225,1,101
4,allocentric,180,1568.44,1,102
4,allocentric,135,4017.4,1,103
4,allocentric,-135,1626.105,1,104
4,allocentric,135,1817.135,1,105
4,allocentric,-45,1942.32,1,106
4,allocentric,-45,1521.755,1,107
4,allocentric,-45,3858.105,1,108
4,allocentric,-45,1334.805,1,109
4,allocentric,180,2528.67,1,110
5,allocentric,135,1268,0,0
5,allocentric,-90,1550,1,1
5,allocentric,-90,1284,1,2
5,allocentric,180,2133,1,3
5,allocentric,0,1483,1,4
5,allocentric,-45,1382,1,5
5,allocentric,-45,1833,1,6
5,allocentric,-45,1401,1,7
5,allocentric,135,1487,1,8
5,allocentric,-45,1432,1,9
5,allocentric,45,1198,1,10
5,allocentric,0,1464,1,11
5,allocentric,180,1533,1,12
5,allocentric,-90,999,1,13
5,allocentric,0,599,1,14
5,allocentric,45,699,1,15
5,allocentric,180,915,0,16
5,allocentric,45,1234,1,17
5,allocentric,-45,1085,1,18
5,allocentric,135,950,1,19
5,allocentric,180,1436,1,20
5,allocentric,90,1185,1,21
5,allocentric,135,1350,1,22
5,allocentric,180,1234,1,23
5,allocentric,180,1883,1,24
5,allocentric,-45,1033,1,25
5,allocentric,-90,1019,1,26
5,allocentric,90,1365,1,27
5,allocentric,-90,931,1,28
5,allocentric,-135,1349,1,29
5,allocentric,45,897,1,30
5,allocentric,45,884,1,31
5,allocentric,180,1017,1,32
5,allocentric,135,933,1,33
5,allocentric,45,816,1,34
5,allocentric,0,965,1,35
5,allocentric,-45,718,1,36
5,allocentric,0,602,1,37
5,allocentric,-90,885,1,38
5,allocentric,135,1231,1,39
5,allocentric,90,1165,1,40
5,allocentric,135,1066,1,41
5,allocentric,90,984,1,42
5,allocentric,135,1000,1,43
5,allocentric,-135,2254,1,44
5,allocentric,-135,864,1,45
5,allocentric,-90,1000,1,46
5,allocentric,45,600,1,47
5,allocentric,-45,697,1,48
5,allocentric,0,667,1,49
5,allocentric,90,1315,1,50
5,allocentric,180,1985,1,51
5,allocentric,180,1082,1,52
5,allocentric,90,735,1,53
5,allocentric,-45,1202,1,54
5,allocentric,-90,787,1,55
5,allocentric,45,602,1,56
5,allocentric,0,834,1,57
5,allocentric,0,683,1,58
5,allocentric,-135,819,1,59
5,allocentric,0,733,1,60
5,allocentric,-90,1018,1,61
5,allocentric,135,949,1,62
5,allocentric,135,882,1,63
5,allocentric,45,832,1,64
5,allocentric,90,1132,1,65
5,allocentric,45,948,1,66
5,allocentric,-135,900,1,67
5,allocentric,135,734,1,68
5,allocentric,-135,915,1,69
5,allocentric,-135,1199,1,70
5,allocentric,0,618,1,71
5,allocentric,-90,750,1,72
5,allocentric,-135,717,1,73
5,allocentric,-135,901,1,74
5,allocentric,-90,784,1,75
5,allocentric,0,918,1,76
5,allocentric,0,519,1,77
5,allocentric,45,1301,1,78
5,allocentric,180,784,1,79
5,allocentric,-45,834,1,80
5,allocentric,-45,834,1,81
5,allocentric,-135,865,1,82
5,allocentric,90,1133,1,83
5,allocentric,90,649,1,84
5,allocentric,90,517,1,85
5,allocentric,45,650,1,86
5,allocentric,180,1751,1,87
5,allocentric,-135,903,0,88
5,allocentric,0,632,1,89
5,allocentric,45,617,1,90
5,allocentric,135,815,1,91
5,allocentric,-135,932,1,92
5,allocentric,135,665,1,93
5,allocentric,90,1051,1,94
5,allocentric,45,737,1,95
5,allocentric,180,1121,1,96
5,allocentric,-45,901,1,97
5,allocentric,-90,650,1,98
5,allocentric,90,949,1,99
5,allocentric,-90,618,1,100
5,allocentric,180,635,1,101
5,allocentric,180,1016,1,102
5,allocentric,-45,700,1,103
5,allocentric,-135,984,1,104
5,allocentric,90,886,1,105
5,allocentric,135,750,1,106
5,allocentric,0,848,1,107
5,allocentric,-90,850,1,108
5,allocentric,90,534,1,109
5,allocentric,-45,549,1,110
5,egocentric,135,967,1,0
5,egocentric,0,733,1,1
5,egocentric,0,652,1,2
5,egocentric,0,516,1,3
5,egocentric,90,716,1,4
5,egocentric,0,584,1,5
5,egocentric,-90,1019,0,6
5,egocentric,180,1500,1,7
5,egocentric,90,1381,1,8
5,egocentric,-135,1317,1,9
5,egocentric,45,1232,1,10
5,egocentric,45,751,1,11
5,egocentric,0,868,1,12
5,egocentric,0,582,1,13
5,egocentric,45,1083,0,14
5,egocentric,90,2117,1,15
5,egocentric,180,1449,0,16
5,egocentric,0,784,1,17
5,egocentric,135,1266,1,18
5,egocentric,135,902,1,19
5,egocentric,180,918,0,20
5,egocentric,-90,1566,1,21
5,egocentric,90,734,1,22
5,egocentric,-135,1418,1,23
5,egocentric,90,751,1,24
5,egocentric,0,885,1,25
5,egocentric,180,1070,1,26
5,egocentric,45,933,1,27
5,egocentric,-45,1283,1,28
5,egocentric,-45,634,1,29
5,egocentric,180,1700,0,30
5,egocentric,0,666,1,31
5,egocentric,135,1000,1,32
5,egocentric,-45,851,1,33
5,egocentric,-90,767,1,34
5,egocentric,-90,1217,1,35
5,egocentric,45,1434,1,36
5,egocentric,-90,734,1,37
5,egocentric,90,1020,1,38
5,egocentric,-45,702,1,39
5,egocentric,-90,1000,1,40
5,egocentric,180,1100,1,41
5,egocentric,180,1382,1,42
5,egocentric,135,686,1,43
5,egocentric,-90,1149,1,44
5,egocentric,-45,716,1,45
5,egocentric,90,833,1,46
5,egocentric,-90,651,1,47
5,egocentric,45,734,1,48
5,egocentric,90,616,1,49
5,egocentric,45,635,1,50
5,egocentric,-45,632,1,51
5,egocentric,135,685,1,52
5,egocentric,45,965,1,53
5,egocentric,180,600,0,54
5,egocentric,-45,949,1,55
5,egocentric,0,620,1,56
5,egocentric,-45,701,1,57
5,egocentric,-135,935,1,58
5,egocentric,90,498,0,59
5,egocentric,-45,819,1,60
5,egocentric,180,1216,1,61
5,egocentric,-135,1298,1,62
5,egocentric,90,683,1,63
5,egocentric,-45,917,1,64
5,egocentric,-45,1032,1,65
5,egocentric,45,667,1,66
5,egocentric,45,499,1,67
5,egocentric,180,699,1,68
5,egocentric,90,750,1,69
5,egocentric,180,649,0,70
5,egocentric,-90,1086,1,71
5,egocentric,-90,967,1,72
5,egocentric,-90,666,0,73
5,egocentric,180,799,1,74
5,egocentric,135,669,1,75
5,egocentric,-45,866,1,76
5,egocentric,-45,837,1,77
5,egocentric,90,885,1,78
5,egocentric,-135,1117,1,79
5,egocentric,-135,2399,1,80
5,egocentric,135,1165,1,81
5,egocentric,180,1300,0,82
5,egocentric,0,851,1,83
5,egocentric,45,1850,1,84
5,egocentric,45,867,1,85
5,egocentric,0,901,1,86
5,egocentric,-135,619,0,87
5,egocentric,-135,1921,1,88
5,egocentric,0,568,1,89
5,egocentric,90,649,1,90
5,egocentric,-135,969,1,91
5,egocentric,-90,616,1,92
5,egocentric,135,817,1,93
5,egocentric,-135,800,1,94
5,egocentric,135,1134,1,95
5,egocentric,-135,1184,0,96
5,egocentric,-135,1585,1,97
5,egocentric,135,1301,1,98
5,egocentric,-135,1599,1,99
5,egocentric,135,1734,1,100
5,egocentric,45,632,1,101
5,egocentric,90,1067,1,102
5,egocentric,-90,1017,1,103
5,egocentric,135,952,1,104
5,egocentric,135,1032,1,105
5,egocentric,45,950,1,106
5,egocentric,-135,671,1,107
5,egocentric,0,570,1,108
5,egocentric,180,1837,1,109
5,egocentric,-90,1034,1,110
6,egocentric,0,658.57,1,0
6,egocentric,0,534.715,1,1
6,egocentric,180,1121.115,1,2
6,egocentric,90,834.81,1,3
6,egocentric,0,542.51,1,4
6,egocentric,180,786.87,1,5
6,egocentric,-90,635.87,1,6
6,egocentric,-90,904.215,1,7
6,egocentric,-90,873.6,1,8
6,egocentric,-45,607.02,1,9
6,egocentric,45,541.035,1,10
6,egocentric,-90,802.195,1,11
6,egocentric,0,601.455,1,12
6,egocentric,180,911.895,1,13
6,egocentric,45,602.31,1,14
6,egocentric,-45,1385.54,1,15
6,egocentric,135,1015.39,1,16
6,egocentric,0,576.93,1,17
6,egocentric,45,602.47,1,18
6,egocentric,90,452.15,1,19
6,egocentric,0,485.78,1,20
6,egocentric,45,919.315,1,21
6,egocentric,135,1202.35,1,22
6,egocentric,90,602.19,1,23
6,egocentric,135,702.625,1,24
6,egocentric,-135,2219.345,1,25
6,egocentric,180,1520.625,1,26
6,egocentric,-90,1195.3,1,27
6,egocentric,135,937.305,1,28
6,egocentric,135,725.265,1,29
6,egocentric,-135,1152.615,1,30
6,egocentric,-135,1578.72,1,31
6,egocentric,-90,942.89,1,32
6,egocentric,45,868.005,1,33
6,egocentric,135,819.38,1,34
6,egocentric,90,553.67,1,35
6,egocentric,-135,725.295,1,36
6,egocentric,-135,1102.755,1,37
6,egocentric,-45,635.89,1,38
6,egocentric,-45,601.595,1,39
6,egocentric,45,600.855,1,40
6,egocentric,135,919.875,1,41
6,egocentric,90,786.49,1,42
6,egocentric,-45,522.455,1,43
6,egocentric,135,917.575,1,44
6,egocentric,135,635.92,1,45
6,egocentric,-135,1068.895,1,46
6,egocentric,-90,740.16,1,47
6,egocentric,0,652.045,1,48
6,egocentric,180,968.875,1,49
6,egocentric,-90,601.49,1,50
6,egocentric,45,512.27,1,51
6,egocentric,-45,568.06,1,52
6,egocentric,90,1168.515,1,53
6,egocentric,-45,502.39,1,54
6,egocentric,-135,832.055,1,55
6,egocentric,45,610.23,1,56
6,egocentric,45,869.565,1,57
6,egocentric,180,1086.385,1,58
6,egocentric,45,797.235,1,59
6,egocentric,180,853.605,1,60
6,egocentric,-135,836.9,1,61
6,egocentric,0,669.33,1,62
6,egocentric,-135,923.72,1,63
6,egocentric,45,501.84,1,64
6,egocentric,180,802.735,1,65
6,egocentric,0,519.14,1,66
6,egocentric,-45,552.115,1,67
6,egocentric,-90,570.835,1,68
6,egocentric,135,585.57,1,69
6,egocentric,90,618.745,1,70
6,egocentric,-135,876.245,1,71
6,egocentric,-45,441.175,1,72
6,egocentric,135,768.41,1,73
6,egocentric,90,518.79,1,74
6,egocentric,180,834.935,1,75
6,egocentric,-135,973.315,1,76
6,egocentric,180,2571.5,1,77
6,egocentric,-90,1085.99,1,78
6,egocentric,90,554.695,1,79
6,egocentric,90,666.745,1,80
6,egocentric,90,703.715,1,81
6,egocentric,90,552.955,1,82
6,egocentric,-135,802.83,1,83
6,egocentric,-135,670.04,1,84
6,egocentric,180,437.25,1,85
6,egocentric,-45,670.935,1,86
6,egocentric,45,936.195,1,87
6,egocentric,0,502.27,1,88
6,egocentric,135,652.18,0,89
6,egocentric,0,789.13,1,90
6,egocentric,90,868.3,1,91
6,egocentric,0,455.625,1,92
6,egocentric,0,493.33,1,93
6,egocentric,-90,484.325,1,94
6,egocentric,0,401.1,1,95
6,egocentric,-90,601.165,1,96
6,egocentric,180,1040.615,1,97
6,egocentric,45,651.455,1,98
6,egocentric,45,737.78,1,99
6,egocentric,-45,602.67,1,100
6,egocentric,-135,805.265,1,101
6,egocentric,180,520.435,1,102
6,egocentric,-45,538.51,1,103
6,egocentric,135,1169.84,1,104
6,egocentric,-90,805.71,1,105
6,egocentric,180,818.33,1,106
6,egocentric,90,737.965,1,107
6,egocentric,-45,485.68,1,108
6,egocentric,-90,1855.755,1,109
6,egocentric,135,609.055,1,110
6,allocentric,90,770.795,1,0
6,allocentric,180,1236.55,1,1
6,allocentric,135,934.99,1,2
6,allocentric,180,484.69,1,3
6,allocentric,-135,899.555,1,4
6,allocentric,45,605.95,1,5
6,allocentric,0,871.48,1,6
6,allocentric,135,922.065,1,7
6,allocentric,-90,895.41,1,8
6,allocentric,-45,852.64,1,9
6,allocentric,-45,1086.335,1,10
6,allocentric,-90,556.75,1,11
6,allocentric,-135,693.42,1,12
6,allocentric,-45,819.57,1,13
6,allocentric,-45,602.24,1,14
6,allocentric,45,585.88,1,15
6,allocentric,45,586.24,1,16
6,allocentric,-90,602.495,1,17
6,allocentric,135,1053.095,1,18
6,allocentric,90,619.03,1,19
6,allocentric,-135,722.755,1,20
6,allocentric,180,1086.215,1,21
6,allocentric,180,719.365,1,22
6,allocentric,90,769.055,1,23
6,allocentric,45,641.04,1,24
6,allocentric,-135,893.36,1,25
6,allocentric,-135,601.98,1,26
6,allocentric,-135,401.98,1,27
6,allocentric,135,440.055,0,28
6,allocentric,0,587.495,1,29
6,allocentric,0,502.065,1,30
6,allocentric,45,467.37,1,31
6,allocentric,-90,768.615,1,32
6,allocentric,-90,827.83,1,33
6,allocentric,90,706.64,1,34
6,allocentric,135,735.75,1,35
6,allocentric,-135,602.725,1,36
6,allocentric,180,648.36,1,37
6,allocentric,180,836.155,1,38
6,allocentric,45,718.505,1,39
6,allocentric,-45,551.15,1,40
6,allocentric,90,439.86,0,41
6,allocentric,0,767.84,1,42
6,allocentric,-45,435.51,1,43
6,allocentric,90,768.09,1,44
6,allocentric,-135,1036.145,1,45
6,allocentric,135,900.905,1,46
6,allocentric,0,585.63,1,47
6,allocentric,180,1369.755,1,48
6,allocentric,45,790.77,1,49
6,allocentric,180,1303.825,1,50
6,allocentric,90,607.825,1,51
6,allocentric,-90,567.985,1,52
6,allocentric,-90,640.31,1,53
6,allocentric,90,756.46,1,54
6,allocentric,-45,684.705,1,55
6,allocentric,-135,538.815,0,56
6,allocentric,180,1324.565,1,57
6,allocentric,-45,575.79,1,58
6,allocentric,90,585.975,1,59
6,allocentric,-90,568.735,1,60
6,allocentric,0,569.215,1,61
6,allocentric,-90,815.61,1,62
6,allocentric,-45,876.615,1,63
6,allocentric,135,869.105,1,64
6,allocentric,90,1419.335,1,65
6,allocentric,45,719.875,1,66
6,allocentric,-90,635.825,1,67
6,allocentric,45,568.685,1,68
6,allocentric,0,466.94,1,69
6,allocentric,-45,554.605,1,70
6,allocentric,135,502.005,0,71
6,allocentric,90,504.33,1,72
6,allocentric,45,1002.9,1,73
6,allocentric,-135,1113.04,1,74
6,allocentric,-135,1006.93,1,75
6,allocentric,180,1270.525,1,76
6,allocentric,180,852.48,1,77
6,allocentric,0,702.205,1,78
6,allocentric,-135,641.41,1,79
6,allocentric,0,601.615,1,80
6,allocentric,-45,1002.59,1,81
6,allocentric,0,467.885,1,82
6,allocentric,0,402.28,1,83
6,allocentric,90,501.345,1,84
6,allocentric,0,551.49,1,85
6,allocentric,-90,544.77,1,86
6,allocentric,45,573.64,1,87
6,allocentric,180,886.1,1,88
6,allocentric,45,586.71,1,89
6,allocentric,135,819.525,1,90
6,allocentric,0,619.62,1,91
6,allocentric,-45,689.485,1,92
6,allocentric,90,769.485,1,93
6,allocentric,-45,602.9,1,94
6,allocentric,-90,606.72,1,95
6,allocentric,45,389.155,1,96
6,allocentric,90,535.535,1,97
6,allocentric,135,502.115,0,98
6,allocentric,180,953.08,1,99
6,allocentric,135,870.015,0,100
6,allocentric,135,708.365,1,101
6,allocentric,180,1035.63,1,102
6,allocentric,-135,1336.29,1,103
6,allocentric,135,769.25,1,104
6,allocentric,0,588.355,1,105
6,allocentric,135,535.675,1,106
6,allocentric,-90,721.495,1,107
6,allocentric,-90,818.16,1,108
6,allocentric,-45,601.98,1,109
6,allocentric,45,667.09,1,110
7,allocentric,-90,1305,1,0
7,allocentric,90,811,1,1
7,allocentric,135,986,1,2
7,allocentric,180,1538,1,3
7,allocentric,135,1101,0,4
7,allocentric,90,1636,0,5
7,allocentric,-45,1180,1,6
7,allocentric,-90,1250,1,7
7,allocentric,180,4306,1,8
7,allocentric,-45,2035,1,9
7,allocentric,135,2716,1,10
7,allocentric,-45,1040,1,11
7,allocentric,90,886,1,12
7,allocentric,0,1096,1,13
7,allocentric,45,818,1,14
7,allocentric,180,2185,1,15
7,allocentric,135,2385,1,16
7,allocentric,180,1432,1,17
7,allocentric,-135,1797,1,18
7,allocentric,-90,2085,1,19
7,allocentric,45,855,1,20
7,allocentric,45,3820,1,21
7,allocentric,-45,1302,1,22
7,allocentric,90,1617,1,23
7,allocentric,0,853,1,24
7,allocentric,135,1503,1,25
7,allocentric,0,1710,1,26
7,allocentric,45,907,1,27
7,allocentric,180,1869,1,28
7,allocentric,-90,1117,1,29
7,allocentric,-45,1141,1,30
7,allocentric,45,1006,1,31
7,allocentric,-45,1488,1,32
7,allocentric,-135,979,1,33
7,allocentric,-45,1339,1,34
7,allocentric,135,1227,1,35
7,allocentric,-90,1105,1,36
7,allocentric,-90,1135,1,37
7,allocentric,0,935,1,38
7,allocentric,45,1151,1,39
7,allocentric,90,1305,1,40
7,allocentric,90,1135,1,41
7,allocentric,90,986,1,42
7,allocentric,0,970,1,43
7,allocentric,-90,1020,1,44
7,allocentric,-135,937,1,45
7,allocentric,135,1085,1,46
7,allocentric,-45,1198,1,47
7,allocentric,0,1577,1,48
7,allocentric,180,1162,1,49
7,allocentric,-45,1436,1,50
7,allocentric,90,929,1,51
7,allocentric,135,886,1,52
7,allocentric,-45,3194,1,53
7,allocentric,180,2660,1,54
7,allocentric,-90,955,1,55
7,allocentric,135,1043,1,56
7,allocentric,-90,1201,1,57
7,allocentric,-45,1088,1,58
7,allocentric,180,1624,1,59
7,allocentric,90,1252,1,60
7,allocentric,45,1887,1,61
7,allocentric,90,1663,1,62
7,allocentric,45,1200,1,63
7,allocentric,0,1833,1,64
7,allocentric,135,3235,1,65
7,allocentric,45,1003,1,66
7,allocentric,0,852,1,67
7,allocentric,-45,1105,1,68
7,allocentric,-45,970,1,69
7,allocentric,180,1704,1,70
7,allocentric,180,4475,1,71
7,allocentric,90,1220,1,72
7,allocentric,-135,1685,1,73
7,allocentric,-135,1830,1,74
7,allocentric,-135,2170,1,75
7,allocentric,-90,2175,1,76
7,allocentric,180,3139,1,77
7,allocentric,135,2230,1,78
7,allocentric,135,2091,1,79
7,allocentric,0,839,1,80
7,allocentric,-90,1026,1,81
7,allocentric,90,1017,1,82
7,allocentric,-90,1059,1,83
7,allocentric,0,837,1,84
7,allocentric,0,1547,1,85
7,allocentric,-135,802,1,86
7,allocentric,-135,1507,1,87
7,allocentric,45,878,1,88
7,allocentric,-135,1445,1,89
7,allocentric,0,1044,1,90
7,allocentric,-45,2021,1,91
7,allocentric,180,1608,1,92
7,allocentric,90,940,1,93
7,allocentric,-90,1004,1,94
7,allocentric,45,753,1,95
7,allocentric,180,2038,1,96
7,allocentric,-135,888,1,97
7,allocentric,-135,1855,1,98
7,allocentric,-135,939,1,99
7,allocentric,135,2106,1,100
7,allocentric,0,777,1,101
7,allocentric,90,1027,1,102
7,allocentric,45,2287,1,103
7,allocentric,135,1987,1,104
7,allocentric,-90,1153,1,105
7,allocentric,-135,2506,1,106
7,allocentric,45,807,1,107
7,allocentric,0,784,1,108
7,allocentric,180,1465,1,109
7,allocentric,45,904,1,110
7,egocentric,180,2580,1,0
7,egocentric,45,1560,1,1
7,egocentric,-90,3273,1,2
7,egocentric,180,4135,1,3
7,egocentric,135,1923,1,4
7,egocentric,-135,2624,1,5
7,egocentric,135,1223,1,6
7,egocentric,90,1049,1,7
7,egocentric,-135,1249,1,8
7,egocentric,-135,5714,1,9
7,egocentric,135,3545,1,10
7,egocentric,-45,1983,1,11
7,egocentric,-90,1046,1,12
7,egocentric,90,1077,1,13
7,egocentric,45,2013,1,14
7,egocentric,0,2255,1,15
7,egocentric,135,1267,1,16
7,egocentric,-90,1296,1,17
7,egocentric,135,1987,1,18
7,egocentric,45,2396,1,19
7,egocentric,90,1069,1,20
7,egocentric,-45,1780,1,21
7,egocentric,90,3264,1,22
7,egocentric,90,1255,1,23
7,egocentric,180,3105,1,24
7,egocentric,135,5894,1,25
7,egocentric,135,1427,1,26
7,egocentric,-135,3568,1,27
7,egocentric,-135,1075,1,28
7,egocentric,-45,2620,1,29
7,egocentric,180,2551,1,30
7,egocentric,-45,2274,1,31
7,egocentric,135,2069,1,32
7,egocentric,180,2154,0,33
7,egocentric,0,1085,1,34
7,egocentric,-135,3495,1,35
7,egocentric,90,1764,1,36
7,egocentric,45,1320,1,37
7,egocentric,-135,1543,1,38
7,egocentric,0,954,1,39
7,egocentric,-45,1259,1,40
7,egocentric,135,1508,1,41
7,egocentric,-135,3143,1,42
7,egocentric,-135,1976,1,43
7,egocentric,180,4238,1,44
7,egocentric,90,1532,1,45
7,egocentric,90,1067,1,46
7,egocentric,180,3561,1,47
7,egocentric,-90,2335,1,48
7,egocentric,-90,3670,1,49
7,egocentric,0,1427,1,50
7,egocentric,-90,1045,1,51
7,egocentric,-135,4218,1,52
7,egocentric,-90,1396,1,53
7,egocentric,-90,3488,1,54
7,egocentric,-45,1955,1,55
7,egocentric,-90,1082,1,56
7,egocentric,135,2078,1,57
7,egocentric,45,1389,1,58
7,egocentric,0,1973,1,59
7,egocentric,-45,2652,1,60
7,egocentric,-135,3220,1,61
7,egocentric,-45,1012,1,62
7,egocentric,180,1940,1,63
7,egocentric,-45,1287,1,64
7,egocentric,180,4891,1,65
7,egocentric,-90,1001,1,66
7,egocentric,180,1890,0,67
7,egocentric,135,1632,1,68
7,egocentric,45,1287,1,69
7,egocentric,45,2675,1,70
7,egocentric,-135,1048,1,71
7,egocentric,-135,1438,0,72
7,egocentric,90,969,1,73
7,egocentric,0,1361,1,74
7,egocentric,135,1293,1,75
7,egocentric,-90,975,1,76
7,egocentric,-45,1139,1,77
7,egocentric,45,1084,1,78
7,egocentric,-135,1042,1,79
7,egocentric,45,1437,1,80
7,egocentric,0,890,1,81
7,egocentric,0,910,1,82
7,egocentric,0,1090,1,83
7,egocentric,0,830,1,84
7,egocentric,0,820,1,85
7,egocentric,-45,1379,1,86
7,egocentric,180,1603,1,87
7,egocentric,45,1087,1,88
7,egocentric,0,797,1,89
7,egocentric,180,3158,1,90
7,egocentric,0,1239,1,91
7,egocentric,180,NA,0,92
7,egocentric,90,1435,1,93
7,egocentric,-90,958,1,94
7,egocentric,90,1064,1,95
7,egocentric,90,917,1,96
7,egocentric,135,1793,1,97
7,egocentric,-45,992,1,98
7,egocentric,-90,1402,1,99
7,egocentric,0,1212,1,100
7,egocentric,45,842,1,101
7,egocentric,180,1228,0,102
7,egocentric,45,805,1,103
7,egocentric,-90,1036,1,104
7,egocentric,90,1955,1,105
7,egocentric,45,786,1,106
7,egocentric,45,1152,1,107
7,egocentric,135,1324,1,108
7,egocentric,-45,1172,1,109
7,egocentric,90,1961,1,110
8,allocentric,90,3082,1,0
8,allocentric,-45,1284,1,1
8,allocentric,90,2126,1,2
8,allocentric,135,2044,1,3
8,allocentric,0,939,1,4
8,allocentric,90,1265,1,5
8,allocentric,-45,1706,1,6
8,allocentric,180,1812,1,7
8,allocentric,180,1448,1,8
8,allocentric,-45,1041,1,9
8,allocentric,-135,1065,1,10
8,allocentric,0,922,1,11
8,allocentric,0,650,1,12
8,allocentric,0,738,1,13
8,allocentric,45,1450,1,14
8,allocentric,-45,1463,1,15
8,allocentric,90,1128,1,16
8,allocentric,-90,1315,1,17
8,allocentric,135,1112,1,18
8,allocentric,-45,2079,1,19
8,allocentric,90,1743,1,20
8,allocentric,45,884,1,21
8,allocentric,-135,1281,1,22
8,allocentric,-45,1298,1,23
8,allocentric,-90,861,1,24
8,allocentric,0,1014,1,25
8,allocentric,-90,912,1,26
8,allocentric,180,1669,1,27
8,allocentric,0,1199,1,28
8,allocentric,135,993,1,29
8,allocentric,-135,1014,1,30
8,allocentric,45,2285,1,31
8,allocentric,0,810,1,32
8,allocentric,0,748,1,33
8,allocentric,-90,1135,1,34
8,allocentric,135,2281,1,35
8,allocentric,90,1130,1,36
8,allocentric,180,1446,1,37
8,allocentric,180,2252,1,38
8,allocentric,90,983,1,39
8,allocentric,-135,1393,1,40
8,allocentric,-135,1566,1,41
8,allocentric,180,1431,1,42
8,allocentric,135,927,1,43
8,allocentric,-90,1114,1,44
8,allocentric,45,798,1,45
8,allocentric,135,682,1,46
8,allocentric,45,865,1,47
8,allocentric,0,603,1,48
8,allocentric,45,2213,1,49
8,allocentric,-135,1386,1,50
8,allocentric,-90,716,1,51
8,allocentric,-90,2742,1,52
8,allocentric,45,1246,1,53
8,allocentric,180,1302,1,54
8,allocentric,0,960,1,55
8,allocentric,-45,2252,1,56
8,allocentric,135,1464,1,57
8,allocentric,-45,1898,1,58
8,allocentric,135,1710,1,59
8,allocentric,-90,1178,1,60
8,allocentric,90,2094,1,61
8,allocentric,-45,1011,1,62
8,allocentric,-90,1328,1,63
8,allocentric,0,728,1,64
8,allocentric,-45,711,1,65
8,allocentric,45,1776,1,66
8,allocentric,90,712,1,67
8,allocentric,-45,947,1,68
8,allocentric,-90,1018,1,69
8,allocentric,90,1145,1,70
8,allocentric,0,749,1,71
8,allocentric,180,1317,1,72
8,allocentric,-135,952,1,73
8,allocentric,90,867,1,74
8,allocentric,135,928,1,75
8,allocentric,135,1063,1,76
8,allocentric,90,731,1,77
8,allocentric,180,970,1,78
8,allocentric,135,1162,1,79
8,allocentric,-90,1521,1,80
8,allocentric,45,827,1,81
8,allocentric,-90,814,1,82
8,allocentric,-135,1018,1,83
8,allocentric,90,1501,1,84
8,allocentric,90,1087,1,85
8,allocentric,45,978,1,86
8,allocentric,180,1517,1,87
8,allocentric,180,2147,1,88
8,allocentric,-45,965,1,89
8,allocentric,135,1297,1,90
8,allocentric,-45,683,1,91
8,allocentric,135,1242,1,92
8,allocentric,-135,1581,1,93
8,allocentric,180,1195,1,94
8,allocentric,45,926,1,95
8,allocentric,0,1612,1,96
8,allocentric,-135,1781,1,97
8,allocentric,-45,702,1,98
8,allocentric,45,983,1,99
8,allocentric,-90,1062,1,100
8,allocentric,45,652,1,101
8,allocentric,-135,764,1,102
8,allocentric,-90,833,1,103
8,allocentric,135,3914,1,104
8,allocentric,180,2831,1,105
8,allocentric,180,2914,1,106
8,allocentric,-135,1052,1,107
8,allocentric,-135,1264,1,108
8,allocentric,45,838,1,109
8,allocentric,0,932,1,110
8,egocentric,135,650,0,0
8,egocentric,-90,1277,1,1
8,egocentric,-90,1436,1,2
8,egocentric,0,788,1,3
8,egocentric,-45,795,1,4
8,egocentric,-135,1568,1,5
8,egocentric,-135,1662,1,6
8,egocentric,135,3353,1,7
8,egocentric,135,3132,1,8
8,egocentric,-135,1814,1,9
8,egocentric,180,1864,0,10
8,egocentric,0,3013,1,11
8,egocentric,90,998,1,12
8,egocentric,-135,4032,1,13
8,egocentric,0,816,1,14
8,egocentric,0,2800,1,15
8,egocentric,45,1287,1,16
8,egocentric,-45,870,1,17
8,egocentric,-45,1014,1,18
8,egocentric,0,1146,1,19
8,egocentric,0,766,1,20
8,egocentric,0,716,1,21
8,egocentric,135,6207,1,22
8,egocentric,180,3481,1,23
8,egocentric,-90,1666,1,24
8,egocentric,135,NA,0,25
8,egocentric,-45,983,1,26
8,egocentric,135,1420,0,27
8,egocentric,135,1145,1,28
8,egocentric,-90,1166,1,29
8,egocentric,45,946,1,30
8,egocentric,135,1967,0,31
8,egocentric,180,2219,1,32
8,egocentric,135,1953,0,33
8,egocentric,45,821,1,34
8,egocentric,135,1862,1,35
8,egocentric,-45,1203,1,36
8,egocentric,0,1372,1,37
8,egocentric,180,2098,1,38
8,egocentric,0,1317,1,39
8,egocentric,90,1990,1,40
8,egocentric,45,914,1,41
8,egocentric,-45,1732,1,42
8,egocentric,180,3021,1,43
8,egocentric,135,1614,1,44
8,egocentric,180,3046,1,45
8,egocentric,-45,1400,1,46
8,egocentric,-135,1121,1,47
8,egocentric,-45,1227,1,48
8,egocentric,0,898,1,49
8,egocentric,-90,1822,1,50
8,egocentric,-135,1282,1,51
8,egocentric,45,766,1,52
8,egocentric,-45,899,1,53
8,egocentric,90,1645,1,54
8,egocentric,90,996,1,55
8,egocentric,180,1580,1,56
8,egocentric,90,986,1,57
8,egocentric,90,982,1,58
8,egocentric,45,1651,1,59
8,egocentric,-90,929,1,60
8,egocentric,-90,1009,1,61
8,egocentric,-45,887,1,62
8,egocentric,90,887,1,63
8,egocentric,-90,847,1,64
8,egocentric,45,735,1,65
8,egocentric,180,4455,1,66
8,egocentric,-135,2990,1,67
8,egocentric,90,1099,1,68
8,egocentric,180,1154,1,69
8,egocentric,45,1936,1,70
8,egocentric,135,1515,1,71
8,egocentric,90,3056,0,72
8,egocentric,-45,1245,1,73
8,egocentric,0,717,1,74
8,egocentric,-45,834,1,75
8,egocentric,180,1415,1,76
8,egocentric,0,833,1,77
8,egocentric,-90,1619,1,78
8,egocentric,180,1107,1,79
8,egocentric,180,2585,1,80
8,egocentric,0,1031,1,81
8,egocentric,-90,843,1,82
8,egocentric,-90,1784,1,83
8,egocentric,-135,4187,0,84
8,egocentric,90,1183,1,85
8,egocentric,45,987,1,86
8,egocentric,-135,2484,1,87
8,egocentric,-135,2855,1,88
8,egocentric,-90,855,1,89
8,egocentric,180,2145,0,90
8,egocentric,135,1630,1,91
8,egocentric,0,788,1,92
8,egocentric,45,670,1,93
8,egocentric,90,885,1,94
8,egocentric,135,1006,1,95
8,egocentric,45,901,1,96
8,egocentric,45,1084,1,97
8,egocentric,-45,1403,1,98
8,egocentric,-90,1815,1,99
8,egocentric,-135,1352,1,100
8,egocentric,-135,973,1,101
8,egocentric,90,1518,1,102
8,egocentric,-135,4773,0,103
8,egocentric,45,966,1,104
8,egocentric,-135,4748,1,105
8,egocentric,45,964,1,106
8,egocentric,180,1334,1,107
8,egocentric,90,1335,1,108
8,egocentric,-90,4782,0,109
8,egocentric,90,1252,1,110
9,egocentric,0,1039.87,1,0
9,egocentric,135,1869.025,0,1
9,egocentric,90,1534.515,1,2
9,egocentric,-135,2502.48,1,3
9,egocentric,-45,1847.81,1,4
9,egocentric,0,1165.485,1,5
9,egocentric,-135,1582.12,1,6
9,egocentric,-45,1681.16,1,7
9,egocentric,-45,2832.28,1,8
9,egocentric,-45,1702.32,1,9
9,egocentric,135,1917.915,1,10
9,egocentric,0,1348.875,1,11
9,egocentric,0,1149.995,1,12
9,egocentric,-135,1766.46,1,13
9,egocentric,45,1382.79,1,14
9,egocentric,180,2283.61,1,15
9,egocentric,180,2432.53,0,16
9,egocentric,-90,1364.35,1,17
9,egocentric,-90,1248.395,1,18
9,egocentric,135,1335.905,1,19
9,egocentric,0,833.635,1,20
9,egocentric,0,1398.495,1,21
9,egocentric,135,1735.56,1,22
9,egocentric,180,2048.715,1,23
9,egocentric,-90,1999.105,1,24
9,egocentric,-90,898.805,1,25
9,egocentric,0,1315.375,1,26
9,egocentric,90,1916.31,1,27
9,egocentric,-135,2104.05,0,28
9,egocentric,-90,1949.16,1,29
9,egocentric,-45,1230.835,1,30
9,egocentric,-135,3148.805,1,31
9,egocentric,-45,1082.225,1,32
9,egocentric,135,1333.745,1,33
9,egocentric,0,948.19,1,34
9,egocentric,-90,1415.42,1,35
9,egocentric,-45,1081.305,1,36
9,egocentric,135,1983.375,0,37
9,egocentric,45,1248.645,1,38
9,egocentric,45,1385.255,1,39
9,egocentric,45,765.26,1,40
9,egocentric,180,2851.59,0,41
9,egocentric,45,1564.94,1,42
9,egocentric,-45,946.71,1,43
9,egocentric,-45,932.12,1,44
9,egocentric,-45,966.33,1,45
9,egocentric,90,1280.665,1,46
9,egocentric,45,1299.855,1,47
9,egocentric,135,1566.27,1,48
9,egocentric,45,1697.415,1,49
9,egocentric,0,985.365,1,50
9,egocentric,-135,1348.705,1,51
9,egocentric,-135,2300.265,1,52
9,egocentric,45,1117.845,1,53
9,egocentric,135,1649.86,0,54
9,egocentric,180,2549.74,0,55
9,egocentric,90,1782.7,1,56
9,egocentric,-135,1599.9,1,57
9,egocentric,45,1447.965,1,58
9,egocentric,90,1182.68,1,59
9,egocentric,180,2365.255,1,60
9,egocentric,90,1582.475,1,61
9,egocentric,90,1165.84,1,62
9,egocentric,135,1749.635,1,63
9,egocentric,-135,2347.94,1,64
9,egocentric,-45,1628.735,0,65
9,egocentric,-90,2133.29,1,66
9,egocentric,180,2552.565,1,67
9,egocentric,90,1066.35,1,68
9,egocentric,0,1266.49,1,69
9,egocentric,45,1803.775,1,70
9,egocentric,135,2434.45,1,71
9,egocentric,0,864.985,1,72
9,egocentric,-90,1167.16,1,73
9,egocentric,-135,1814.95,1,74
9,egocentric,-135,2566.43,1,75
9,egocentric,180,3069.04,1,76
9,egocentric,90,1516.13,1,77
9,egocentric,-90,1146.675,1,78
9,egocentric,180,1902.255,0,79
9,egocentric,-135,3555.085,1,80
9,egocentric,45,1033.9,0,81
9,egocentric,180,2753.455,0,82
9,egocentric,90,1301.35,1,83
9,egocentric,135,1833.245,1,84
9,egocentric,135,716.42,1,85
9,egocentric,180,1281.115,1,86
9,egocentric,-90,3533.68,1,87
9,egocentric,-135,4566.42,1,88
9,egocentric,180,2047.965,1,89
9,egocentric,-90,2185.805,1,90
9,egocentric,180,1997.765,1,91
9,egocentric,90,1046.3,1,92
9,egocentric,-90,3551.95,1,93
9,egocentric,90,1495.545,1,94
9,egocentric,0,933.825,1,95
9,egocentric,-45,1981.435,1,96
9,egocentric,45,1650.34,1,97
9,egocentric,-90,1566.295,1,98
9,egocentric,0,1050.01,1,99
9,egocentric,0,849.595,1,100
9,egocentric,-135,2065.45,1,101
9,egocentric,45,1547.25,0,102
9,egocentric,-90,1517.96,1,103
9,egocentric,180,2298.775,1,104
9,egocentric,-45,1166.79,1,105
9,egocentric,90,1232.025,1,106
9,egocentric,135,1065.93,1,107
9,egocentric,90,1048.42,1,108
9,egocentric,45,1433.045,1,109
9,egocentric,135,2186.785,1,110
9,allocentric,135,1435.545,1,0
9,allocentric,0,997.175,1,1
9,allocentric,-135,1683.37,1,2
9,allocentric,45,1250.61,1,3
9,allocentric,-90,1629.58,1,4
9,allocentric,-45,948.95,1,5
9,allocentric,0,753.04,1,6
9,allocentric,135,1650.84,1,7
9,allocentric,180,2580.13,1,8
9,allocentric,-45,2214.145,0,9
9,allocentric,135,3886.27,1,10
9,allocentric,-90,1298.98,1,11
9,allocentric,45,1449.015,1,12
9,allocentric,45,2988.105,1,13
9,allocentric,0,1450.44,1,14
9,allocentric,0,1433.185,1,15
9,allocentric,-45,1832.14,1,16
9,allocentric,180,2200.43,1,17
9,allocentric,180,2417,1,18
9,allocentric,-135,1949.74,1,19
9,allocentric,-45,2316.31,1,20
9,allocentric,-90,1147.435,1,21
9,allocentric,-45,1151.7,1,22
9,allocentric,-135,2800.295,1,23
9,allocentric,-135,1900.86,1,24
9,allocentric,135,2884.035,1,25
9,allocentric,45,1283.13,1,26
9,allocentric,-135,1249.535,1,27
9,allocentric,135,1667.555,1,28
9,allocentric,90,631.23,1,29
9,allocentric,180,1830.175,1,30
9,allocentric,90,1548.965,1,31
9,allocentric,0,1183.515,1,32
9,allocentric,-45,1080.96,1,33
9,allocentric,135,1816.45,1,34
9,allocentric,-90,1015.775,1,35
9,allocentric,0,1298.295,1,36
9,allocentric,90,1150.78,1,37
9,allocentric,-135,1183.715,1,38
9,allocentric,45,1000.515,1,39
9,allocentric,135,1169.695,1,40
9,allocentric,45,933.41,1,41
9,allocentric,-45,734.555,1,42
9,allocentric,90,1454.42,1,43
9,allocentric,-90,900.185,1,44
9,allocentric,45,750.445,1,45
9,allocentric,-90,1115.895,1,46
9,allocentric,-90,883.63,1,47
9,allocentric,180,3015.86,1,48
9,allocentric,0,916.71,1,49
9,allocentric,90,933.54,1,50
9,allocentric,135,965.955,1,51
9,allocentric,135,1418.715,1,52
9,allocentric,-90,833.8,1,53
9,allocentric,-135,1448.46,1,54
9,allocentric,45,815.58,1,55
9,allocentric,180,3365.63,1,56
9,allocentric,45,869.975,1,57
9,allocentric,45,750.935,1,58
9,allocentric,-135,2434.82,1,59
9,allocentric,90,1682.935,1,60
9,allocentric,-90,1399.43,1,61
9,allocentric,45,1099.765,1,62
9,allocentric,180,2233.17,1,63
9,allocentric,45,947.51,1,64
9,allocentric,0,735.88,1,65
9,allocentric,-135,1466.78,1,66
9,allocentric,180,1382.535,1,67
9,allocentric,90,980.88,1,68
9,allocentric,-90,1233.415,1,69
9,allocentric,45,1764.385,1,70
9,allocentric,135,2149.675,0,71
9,allocentric,-90,1253.75,1,72
9,allocentric,-90,1019.83,1,73
9,allocentric,0,1050.145,1,74
9,allocentric,0,533.315,1,75
9,allocentric,90,1116.53,1,76
9,allocentric,90,1099.275,1,77
9,allocentric,45,904.675,1,78
9,allocentric,0,818.355,1,79
9,allocentric,180,1833.595,1,80
9,allocentric,-135,1683.24,1,81
9,allocentric,-45,915.495,1,82
9,allocentric,-135,1119.16,1,83
9,allocentric,90,1034.265,1,84
9,allocentric,-45,934.19,1,85
9,allocentric,-90,1985.23,1,86
9,allocentric,0,1016.935,1,87
9,allocentric,90,1166.67,1,88
9,allocentric,-135,1433.21,1,89
9,allocentric,-45,1101.45,1,90
9,allocentric,-45,2515.61,1,91
9,allocentric,180,2583.61,1,92
9,allocentric,90,1831.25,1,93
9,allocentric,135,3818.895,1,94
9,allocentric,0,931.715,1,95
9,allocentric,180,2019.78,1,96
9,allocentric,-135,1548.56,1,97
9,allocentric,-90,1316.2,1,98
9,allocentric,180,1550.27,1,99
9,allocentric,135,1467.1,1,100
9,allocentric,-45,816.985,1,101
9,allocentric,180,1950.34,0,102
9,allocentric,90,2217.22,1,103
9,allocentric,0,884.02,1,104
9,allocentric,-45,766.97,1,105
9,allocentric,180,1784.89,1,106
9,allocentric,135,2180.345,1,107
9,allocentric,-45,2116.11,1,108
9,allocentric,90,965.51,1,109
9,allocentric,135,1550.345,1,110
10,allocentric,-90,1481,1,0
10,allocentric,-135,1861,1,1
10,allocentric,-135,1216,1,2
10,allocentric,-45,1498,1,3
10,allocentric,135,883,1,4
10,allocentric,-45,1083,1,5
10,allocentric,45,1667,1,6
10,allocentric,-45,917,1,7
10,allocentric,180,1030,1,8
10,allocentric,-90,979,1,9
10,allocentric,-90,1265,1,10
10,allocentric,-90,1268,1,11
10,allocentric,180,986,1,12
10,allocentric,-90,894,1,13
10,allocentric,-45,716,1,14
10,allocentric,45,1116,1,15
10,allocentric,180,1683,1,16
10,allocentric,-45,964,1,17
10,allocentric,-135,1150,1,18
10,allocentric,-45,1549,1,19
10,allocentric,0,848,1,20
10,allocentric,-45,665,1,21
10,allocentric,135,1216,1,22
10,allocentric,90,1099,1,23
10,allocentric,90,899,1,24
10,allocentric,180,1616,1,25
10,allocentric,90,779,1,26
10,allocentric,90,863,1,27
10,allocentric,0,783,1,28
10,allocentric,0,799,1,29
10,allocentric,45,1217,1,30
10,allocentric,180,2017,1,31
10,allocentric,90,816,1,32
10,allocentric,90,1130,1,33
10,allocentric,90,779,1,34
10,allocentric,45,616,1,35
10,allocentric,-135,801,0,36
10,allocentric,180,1452,1,37
10,allocentric,135,1017,1,38
10,allocentric,-90,1067,0,39
10,allocentric,45,1531,1,40
10,allocentric,-135,2250,1,41
10,allocentric,-45,1584,1,42
10,allocentric,0,851,1,43
10,allocentric,135,970,1,44
10,allocentric,-45,1083,1,45
10,allocentric,-135,2217,1,46
10,allocentric,135,7219,1,47
10,allocentric,45,1366,1,48
10,allocentric,135,2550,1,49
10,allocentric,45,768,1,50
10,allocentric,-45,767,1,51
10,allocentric,180,951,1,52
10,allocentric,0,634,1,53
10,allocentric,45,801,1,54
10,allocentric,-135,1168,1,55
10,allocentric,135,1150,1,56
10,allocentric,135,1012,1,57
10,allocentric,-135,1050,1,58
10,allocentric,0,667,0,59
10,allocentric,45,964,1,60
10,allocentric,0,704,1,61
10,allocentric,-45,899,1,62
10,allocentric,90,752,1,63
10,allocentric,45,1300,1,64
10,allocentric,135,3748,1,65
10,allocentric,180,2132,1,66
10,allocentric,180,1415,1,67
10,allocentric,90,1602,1,68
10,allocentric,135,1629,1,69
10,allocentric,90,1132,1,70
10,allocentric,0,733,1,71
10,allocentric,135,969,1,72
10,allocentric,-90,835,1,73
10,allocentric,90,882,1,74
10,allocentric,90,1051,1,75
10,allocentric,45,600,1,76
10,allocentric,45,581,1,77
10,allocentric,-90,734,1,78
10,allocentric,90,1098,1,79
10,allocentric,-135,1147,1,80
10,allocentric,0,696,1,81
10,allocentric,135,1035,1,82
10,allocentric,180,1235,1,83
10,allocentric,-90,815,1,84
10,allocentric,180,1366,1,85
10,allocentric,45,736,1,86
10,allocentric,180,1133,1,87
10,allocentric,-90,927,1,88
10,allocentric,-90,931,1,89
10,allocentric,90,900,1,90
10,allocentric,0,603,1,91
10,allocentric,-90,968,1,92
10,allocentric,0,1719,1,93
10,allocentric,-135,1118,1,94
10,allocentric,-90,900,0,95
10,allocentric,0,768,1,96
10,allocentric,-135,1034,1,97
10,allocentric,45,1149,1,98
10,allocentric,0,633,1,99
10,allocentric,-135,1032,1,100
10,allocentric,-135,1334,1,101
10,allocentric,-45,619,1,102
10,allocentric,-90,903,1,103
10,allocentric,0,667,1,104
10,allocentric,180,1034,1,105
10,allocentric,-45,813,1,106
10,allocentric,-45,772,1,107
10,allocentric,135,1617,1,108
10,allocentric,180,1601,1,109
10,allocentric,135,1053,1,110
10,egocentric,0,832,1,0
10,egocentric,-45,665,1,1
10,egocentric,180,1200,1,2
10,egocentric,-135,1180,1,3
10,egocentric,0,916,1,4
10,egocentric,90,767,1,5
10,egocentric,45,1082,1,6
10,egocentric,45,971,1,7
10,egocentric,-90,1216,1,8
10,egocentric,135,1247,1,9
10,egocentric,-135,819,1,10
10,egocentric,-45,728,1,11
10,egocentric,-45,1234,1,12
10,egocentric,-45,518,1,13
10,egocentric,0,517,1,14
10,egocentric,-90,637,1,15
10,egocentric,45,798,1,16
10,egocentric,90,897,1,17
10,egocentric,45,564,1,18
10,egocentric,90,764,1,19
10,egocentric,90,1184,1,20
10,egocentric,180,849,0,21
10,egocentric,180,669,1,22
10,egocentric,-45,576,1,23
10,egocentric,135,968,1,24
10,egocentric,-135,1166,1,25
10,egocentric,135,953,1,26
10,egocentric,180,963,0,27
10,egocentric,90,999,1,28
10,egocentric,180,1347,1,29
10,egocentric,45,1234,1,30
10,egocentric,180,1314,1,31
10,egocentric,135,1015,0,32
10,egocentric,0,849,1,33
10,egocentric,-135,1128,1,34
10,egocentric,45,1032,1,35
10,egocentric,180,1816,1,36
10,egocentric,-45,1000,1,37
10,egocentric,0,548,1,38
10,egocentric,-135,732,1,39
10,egocentric,180,1364,1,40
10,egocentric,45,1045,1,41
10,egocentric,180,920,1,42
10,egocentric,45,779,1,43
10,egocentric,90,1100,1,44
10,egocentric,135,982,1,45
10,egocentric,135,800,1,46
10,egocentric,-135,885,1,47
10,egocentric,90,1018,1,48
10,egocentric,135,565,1,49
10,egocentric,45,801,1,50
10,egocentric,-90,1550,1,51
10,egocentric,-135,1767,1,52
10,egocentric,-90,883,1,53
10,egocentric,45,865,1,54
10,egocentric,-90,787,1,55
10,egocentric,90,869,1,56
10,egocentric,-135,1899,1,57
10,egocentric,45,797,1,58
10,egocentric,90,869,1,59
10,egocentric,135,850,1,60
10,egocentric,135,846,0,61
10,egocentric,0,683,1,62
10,egocentric,-45,467,1,63
10,egocentric,0,766,1,64
10,egocentric,0,649,1,65
10,egocentric,-45,683,1,66
10,egocentric,-135,1081,1,67
10,egocentric,45,780,1,68
10,egocentric,135,1265,1,69
10,egocentric,0,669,1,70
10,egocentric,0,850,1,71
10,egocentric,-135,1815,1,72
10,egocentric,180,1333,1,73
10,egocentric,90,685,1,74
10,egocentric,-45,951,1,75
10,egocentric,-45,900,1,76
10,egocentric,90,1167,1,77
10,egocentric,0,681,1,78
10,egocentric,-45,1000,1,79
10,egocentric,-135,716,1,80
10,egocentric,135,1616,1,81
10,egocentric,-90,1064,1,82
10,egocentric,0,599,1,83
10,egocentric,135,963,1,84
10,egocentric,45,814,1,85
10,egocentric,180,483,0,86
10,egocentric,90,869,1,87
10,egocentric,180,1035,0,88
10,egocentric,135,815,1,89
10,egocentric,-90,798,1,90
10,egocentric,-45,1058,1,91
10,egocentric,90,881,1,92
10,egocentric,-90,664,1,93
10,egocentric,90,746,1,94
10,egocentric,180,1084,1,95
10,egocentric,180,1218,1,96
10,egocentric,-90,699,1,97
10,egocentric,-90,1067,1,98
10,egocentric,45,913,1,99
10,egocentric,-135,846,1,100
10,egocentric,-90,687,1,101
10,egocentric,-90,1186,1,102
10,egocentric,0,650,1,103
10,egocentric,-90,682,1,104
10,egocentric,-135,635,1,105
10,egocentric,-135,1018,1,106
10,egocentric,-90,532,1,107
10,egocentric,135,598,1,108
10,egocentric,-45,798,1,109
10,egocentric,0,600,1,110
11,egocentric,-45,732,1,0
11,egocentric,0,637,1,1
11,egocentric,180,1038,1,2
11,egocentric,90,934,1,3
11,egocentric,90,927,1,4
11,egocentric,180,1267,1,5
11,egocentric,-45,863,1,6
11,egocentric,45,937,1,7
11,egocentric,0,728,1,8
11,egocentric,135,833,1,9
11,egocentric,180,1209,1,10
11,egocentric,135,912,1,11
11,egocentric,90,880,1,12
11,egocentric,-135,1107,1,13
11,egocentric,-135,1088,1,14
11,egocentric,-90,888,1,15
11,egocentric,-90,749,1,16
11,egocentric,-45,761,1,17
11,egocentric,45,724,1,18
11,egocentric,180,906,1,19
11,egocentric,0,1033,1,20
11,egocentric,135,854,1,21
11,egocentric,-135,1271,1,22
11,egocentric,-135,772,1,23
11,egocentric,90,716,1,24
11,egocentric,180,889,1,25
11,egocentric,-135,1051,1,26
11,egocentric,-45,846,1,27
11,egocentric,0,789,1,28
11,egocentric,135,838,1,29
11,egocentric,-90,784,1,30
11,egocentric,-90,799,1,31
11,egocentric,180,1199,1,32
11,egocentric,-90,732,1,33
11,egocentric,-45,763,1,34
11,egocentric,45,679,1,35
11,egocentric,135,772,1,36
11,egocentric,135,774,1,37
11,egocentric,45,628,1,38
11,egocentric,0,639,1,39
11,egocentric,135,797,1,40
11,egocentric,180,831,1,41
11,egocentric,-135,939,1,42
11,egocentric,180,603,1,43
11,egocentric,-45,609,1,44
11,egocentric,-135,714,1,45
11,egocentric,180,1085,1,46
11,egocentric,90,883,1,47
11,egocentric,180,829,1,48
11,egocentric,0,505,1,49
11,egocentric,135,900,1,50
11,egocentric,-45,695,1,51
11,egocentric,90,732,1,52
11,egocentric,45,746,1,53
11,egocentric,-135,796,1,54
11,egocentric,180,758,1,55
11,egocentric,90,580,1,56
11,egocentric,90,456,1,57
11,egocentric,-135,663,1,58
11,egocentric,135,540,1,59
11,egocentric,90,730,1,60
11,egocentric,135,688,1,61
11,egocentric,-90,1074,1,62
11,egocentric,90,754,1,63
11,egocentric,-90,603,1,64
11,egocentric,90,614,1,65
11,egocentric,90,682,1,66
11,egocentric,-45,556,1,67
11,egocentric,90,707,1,68
11,egocentric,135,1101,1,69
11,egocentric,45,681,1,70
11,egocentric,45,561,1,71
11,egocentric,-90,1224,1,72
11,egocentric,0,596,1,73
11,egocentric,-90,745,1,74
11,egocentric,180,998,1,75
11,egocentric,45,597,1,76
11,egocentric,-90,625,1,77
11,egocentric,180,979,1,78
11,egocentric,-135,545,1,79
11,egocentric,-135,971,1,80
11,egocentric,180,696,1,81
11,egocentric,0,538,1,82
11,egocentric,-90,538,1,83
11,egocentric,0,567,1,84
11,egocentric,-45,445,1,85
11,egocentric,-90,662,1,86
11,egocentric,135,697,1,87
11,egocentric,45,513,1,88
11,egocentric,45,432,1,89
11,egocentric,0,571,1,90
11,egocentric,135,680,1,91
11,egocentric,0,604,1,92
11,egocentric,45,563,1,93
11,egocentric,-135,528,1,94
11,egocentric,45,583,1,95
11,egocentric,0,431,1,96
11,egocentric,-90,541,1,97
11,egocentric,45,473,1,98
11,egocentric,0,502,1,99
11,egocentric,-135,687,1,100
11,egocentric,135,738,1,101
11,egocentric,-45,513,1,102
11,egocentric,90,507,1,103
11,egocentric,0,483,1,104
11,egocentric,-90,455,0,105
11,egocentric,45,655,1,106
11,egocentric,-45,586,1,107
11,egocentric,-45,429,1,108
11,egocentric,-135,1156,1,109
11,egocentric,-45,631,1,110
11,allocentric,135,1449,1,0
11,allocentric,0,1096,1,1
11,allocentric,-90,1292,1,2
11,allocentric,45,1107,1,3
11,allocentric,-90,1478,1,4
11,allocentric,135,1320,1,5
11,allocentric,90,1213,1,6
11,allocentric,0,841,1,7
11,allocentric,45,915,1,8
11,allocentric,90,1533,1,9
11,allocentric,90,1566,1,10
11,allocentric,0,1012,1,11
11,allocentric,90,970,1,12
11,allocentric,-135,2158,1,13
11,allocentric,-90,1230,1,14
11,allocentric,-45,994,1,15
11,allocentric,135,998,1,16
11,allocentric,-90,2080,1,17
11,allocentric,45,1298,1,18
11,allocentric,0,1144,1,19
11,allocentric,-135,1086,1,20
11,allocentric,0,880,1,21
11,allocentric,-90,1581,1,22
11,allocentric,45,830,1,23
11,allocentric,90,1348,1,24
11,allocentric,-135,1259,1,25
11,allocentric,180,2086,1,26
11,allocentric,135,1673,1,27
11,allocentric,135,1378,1,28
11,allocentric,180,1172,1,29
11,allocentric,-90,954,1,30
11,allocentric,-45,992,1,31
11,allocentric,0,746,1,32
11,allocentric,135,1281,1,33
11,allocentric,135,885,1,34
11,allocentric,180,664,1,35
11,allocentric,-45,1043,1,36
11,allocentric,-90,709,1,37
11,allocentric,90,1538,1,38
11,allocentric,90,705,1,39
11,allocentric,-45,1610,1,40
11,allocentric,0,998,1,41
11,allocentric,135,1000,1,42
11,allocentric,180,1584,1,43
11,allocentric,-135,742,1,44
11,allocentric,135,807,1,45
11,allocentric,180,1958,1,46
11,allocentric,-135,1692,1,47
11,allocentric,180,2125,1,48
11,allocentric,-135,1067,1,49
11,allocentric,135,1777,1,50
11,allocentric,-45,993,1,51
11,allocentric,-90,932,1,52
11,allocentric,0,562,1,53
11,allocentric,135,3678,1,54
11,allocentric,-45,2878,1,55
11,allocentric,90,984,1,56
11,allocentric,-90,913,1,57
11,allocentric,135,1205,1,58
11,allocentric,135,1434,1,59
11,allocentric,90,1333,1,60
11,allocentric,-135,1241,1,61
11,allocentric,90,1150,1,62
11,allocentric,180,1441,1,63
11,allocentric,-135,765,1,64
11,allocentric,180,1277,1,65
11,allocentric,90,910,1,66
11,allocentric,180,1299,1,67
11,allocentric,-45,2686,1,68
11,allocentric,0,1332,1,69
11,allocentric,45,1000,1,70
11,allocentric,0,729,1,71
11,allocentric,180,1116,1,72
11,allocentric,-90,987,1,73
11,allocentric,180,997,1,74
11,allocentric,0,647,1,75
11,allocentric,-90,849,1,76
11,allocentric,-90,849,1,77
11,allocentric,45,1270,1,78
11,allocentric,-135,825,1,79
11,allocentric,45,770,1,80
11,allocentric,45,1283,1,81
11,allocentric,135,1416,1,82
11,allocentric,90,897,1,83
11,allocentric,180,1398,0,84
11,allocentric,45,1172,1,85
11,allocentric,180,1365,1,86
11,allocentric,-45,683,1,87
11,allocentric,45,1247,1,88
11,allocentric,90,1146,1,89
11,allocentric,0,776,1,90
11,allocentric,45,1032,1,91
11,allocentric,45,649,1,92
11,allocentric,-45,680,1,93
11,allocentric,-45,583,1,94
11,allocentric,-45,1016,1,95
11,allocentric,180,1493,1,96
11,allocentric,-90,1390,1,97
11,allocentric,-135,998,1,98
11,allocentric,-90,1215,1,99
11,allocentric,45,995,1,100
11,allocentric,0,689,1,101
11,allocentric,0,575,1,102
11,allocentric,-135,841,1,103
11,allocentric,-45,772,1,104
11,allocentric,-135,863,1,105
11,allocentric,-135,996,1,106
11,allocentric,45,612,1,107
11,allocentric,-45,590,1,108
11,allocentric,-45,539,1,109
11,allocentric,90,796,1,110
12,egocentric,-45,845.005,1,0
12,egocentric,-45,913.65,1,1
12,egocentric,-45,722.555,1,2
12,egocentric,0,577.94,1,3
12,egocentric,0,826.65,1,4
12,egocentric,135,1410.15,1,5
12,egocentric,90,997.95,1,6
12,egocentric,45,780.795,1,7
12,egocentric,-135,1069.895,1,8
12,egocentric,0,865.29,1,9
12,egocentric,45,667.855,1,10
12,egocentric,-45,825.41,1,11
12,egocentric,0,1507.28,1,12
12,egocentric,-135,1021.69,1,13
12,egocentric,180,1081.11,1,14
12,egocentric,-45,2145.86,1,15
12,egocentric,0,678.985,1,16
12,egocentric,0,692.28,1,17
12,egocentric,90,1025.415,1,18
12,egocentric,45,707.905,1,19
12,egocentric,45,882.925,1,20
12,egocentric,45,680.9,1,21
12,egocentric,-135,976.3,1,22
12,egocentric,0,1831.05,1,23
12,egocentric,180,2066.395,1,24
12,egocentric,180,1283.85,1,25
12,egocentric,45,834.175,1,26
12,egocentric,-45,755.595,1,27
12,egocentric,0,774.65,1,28
12,egocentric,0,805.26,1,29
12,egocentric,-90,844.83,1,30
12,egocentric,-90,1273.775,1,31
12,egocentric,-135,1811.99,1,32
12,egocentric,90,902.36,1,33
12,egocentric,-135,1174.88,1,34
12,egocentric,180,1504.17,1,35
12,egocentric,90,1346.915,1,36
12,egocentric,135,1027.56,1,37
12,egocentric,-90,918.315,1,38
12,egocentric,90,901.06,1,39
12,egocentric,90,914.115,1,40
12,egocentric,135,1039.05,1,41
12,egocentric,135,871.765,1,42
12,egocentric,-90,972.44,1,43
12,egocentric,180,1234.875,1,44
12,egocentric,-135,1034.075,1,45
12,egocentric,135,1003.155,1,46
12,egocentric,-90,1082.83,1,47
12,egocentric,45,814.815,1,48
12,egocentric,90,1062.055,1,49
12,egocentric,135,1031.405,1,50
12,egocentric,90,822.15,1,51
12,egocentric,-45,1984.55,1,52
12,egocentric,90,1401.65,1,53
12,egocentric,90,784.385,1,54
12,egocentric,90,839.925,1,55
12,egocentric,135,814.795,1,56
12,egocentric,-90,881.74,1,57
12,egocentric,-135,1356.835,1,58
12,egocentric,180,1393.36,1,59
12,egocentric,0,673.645,1,60
12,egocentric,45,703.715,1,61
12,egocentric,45,647.645,1,62
12,egocentric,-135,870.02,1,63
12,egocentric,135,771.54,1,64
12,egocentric,-135,1358.21,1,65
12,egocentric,-135,1024.75,1,66
12,egocentric,-135,684,1,67
12,egocentric,180,868.46,1,68
12,egocentric,-90,859.38,1,69
12,egocentric,135,1019.635,1,70
12,egocentric,180,1292.415,1,71
12,egocentric,45,931.405,1,72
12,egocentric,0,755.745,1,73
12,egocentric,-135,1241.81,1,74
12,egocentric,0,832.18,1,75
12,egocentric,-90,831.67,1,76
12,egocentric,180,997.77,1,77
12,egocentric,-90,917.82,1,78
12,egocentric,-45,749.91,1,79
12,egocentric,180,1283.035,1,80
12,egocentric,45,1255.945,1,81
12,egocentric,-90,669.605,1,82
12,egocentric,45,670.835,1,83
12,egocentric,90,630.76,1,84
12,egocentric,180,1884.01,1,85
12,egocentric,135,1549.15,1,86
12,egocentric,135,1208.16,1,87
12,egocentric,45,724.74,1,88
12,egocentric,-45,796.355,1,89
12,egocentric,180,1475.23,1,90
12,egocentric,180,1093.165,1,91
12,egocentric,45,1414.395,1,92
12,egocentric,-45,1817.175,1,93
12,egocentric,0,1014.595,1,94
12,egocentric,-90,853.705,1,95
12,egocentric,90,865.43,1,96
12,egocentric,-135,2029.385,1,97
12,egocentric,-45,806.8,1,98
12,egocentric,180,1054.94,1,99
12,egocentric,135,2503.77,1,100
12,egocentric,135,1314.095,1,101
12,egocentric,-135,1915.67,1,102
12,egocentric,135,1612.825,1,103
12,egocentric,0,691.815,1,104
12,egocentric,90,750.74,1,105
12,egocentric,-90,998.58,1,106
12,egocentric,-45,847.505,1,107
12,egocentric,-90,1015.24,1,108
12,egocentric,-45,604,1,109
12,egocentric,-90,1266.085,1,110
12,allocentric,135,2216.615,1,0
12,allocentric,45,1267.34,1,1
12,allocentric,0,1208.565,1,2
12,allocentric,-90,1134.62,1,3
12,allocentric,-45,1123.69,1,4
12,allocentric,45,984.28,1,5
12,allocentric,-90,1374.53,1,6
12,allocentric,90,1268.525,1,7
12,allocentric,-90,1305.285,1,8
12,allocentric,135,1300.32,1,9
12,allocentric,0,1103.18,1,10
12,allocentric,-135,1337.96,1,11
12,allocentric,180,3200.075,1,12
12,allocentric,-90,1369.82,1,13
12,allocentric,90,1071.175,1,14
12,allocentric,90,1307.625,1,15
12,allocentric,-90,1123.42,1,16
12,allocentric,135,1124.325,1,17
12,allocentric,180,1353.315,1,18
12,allocentric,180,2805.18,1,19
12,allocentric,45,1306.575,1,20
12,allocentric,45,1010.085,1,21
12,allocentric,180,1339.565,1,22
12,allocentric,180,2739.495,1,23
12,allocentric,180,2120.775,1,24
12,allocentric,-90,1151.42,1,25
12,allocentric,-135,1203.04,1,26
12,allocentric,-90,1627.6,1,27
12,allocentric,135,1225.705,1,28
12,allocentric,0,1172.75,1,29
12,allocentric,-90,984.99,1,30
12,allocentric,0,1068.84,1,31
12,allocentric,45,1068.295,1,32
12,allocentric,-45,2277.61,1,33
12,allocentric,180,985.49,1,34
12,allocentric,90,1334.82,1,35
12,allocentric,0,1224.37,1,36
12,allocentric,0,911.83,1,37
12,allocentric,-90,1391.46,1,38
12,allocentric,0,1418.195,1,39
12,allocentric,-135,2375.6,1,40
12,allocentric,-45,1387.215,1,41
12,allocentric,45,1334.13,1,42
12,allocentric,-90,884.375,1,43
12,allocentric,45,1001.335,1,44
12,allocentric,-135,2300.025,1,45
12,allocentric,0,1927.035,1,46
12,allocentric,45,1069.845,1,47
12,allocentric,-135,1540.615,1,48
12,allocentric,-90,1428.33,1,49
12,allocentric,90,1662.735,1,50
12,allocentric,-135,1101.645,1,51
12,allocentric,-90,1328.505,1,52
12,allocentric,135,1289.835,1,53
12,allocentric,-45,1268.745,1,54
12,allocentric,135,2041.26,1,55
12,allocentric,-135,3000.85,1,56
12,allocentric,135,2408.845,1,57
12,allocentric,45,1218.545,1,58
12,allocentric,45,1090.735,1,59
12,allocentric,0,1642.68,1,60
12,allocentric,-135,1818.57,1,61
12,allocentric,-90,1968.425,1,62
12,allocentric,-135,3371.365,1,63
12,allocentric,180,2374.835,1,64
12,allocentric,180,1550.305,1,65
12,allocentric,90,1673.065,1,66
12,allocentric,90,1167.635,1,67
12,allocentric,135,2673.075,1,68
12,allocentric,-45,1676.825,1,69
12,allocentric,0,1056.46,1,70
12,allocentric,135,2983.765,1,71
12,allocentric,0,2620.265,1,72
12,allocentric,45,1368.82,1,73
12,allocentric,-45,1357.675,1,74
12,allocentric,45,1440.845,1,75
12,allocentric,-45,1504.695,0,76
12,allocentric,45,1325.42,1,77
12,allocentric,135,1468.785,0,78
12,allocentric,0,1933.79,1,79
12,allocentric,-45,1117.87,1,80
12,allocentric,-135,1540.965,1,81
12,allocentric,-45,1074.96,1,82
12,allocentric,-45,1402.24,0,83
12,allocentric,135,2124.06,1,84
12,allocentric,-135,1400.18,1,85
12,allocentric,90,2204.39,1,86
12,allocentric,90,1868.99,1,87
12,allocentric,-45,1724.315,1,88
12,allocentric,0,1509.735,1,89
12,allocentric,-45,1353.095,1,90
12,allocentric,-90,1660.79,1,91
12,allocentric,90,2367.71,1,92
12,allocentric,135,1676.115,1,93
12,allocentric,135,1857.42,1,94
12,allocentric,45,1387.175,1,95
12,allocentric,180,1723.29,1,96
12,allocentric,90,1361.135,1,97
12,allocentric,-45,1468.5,1,98
12,allocentric,-135,1274.61,1,99
12,allocentric,180,1452.28,1,100
12,allocentric,180,1375.44,1,101
12,allocentric,0,1456.475,1,102
12,allocentric,180,902.805,0,103
12,allocentric,90,2323.22,1,104
12,allocentric,90,2306.235,1,105
12,allocentric,-45,1567.545,1,106
12,allocentric,180,1818.56,1,107
12,allocentric,135,1789.985,1,108
12,allocentric,90,2034.57,1,109
12,allocentric,-135,3216.76,1,110
13,allocentric,0,1341.82,1,0
13,allocentric,45,5147.12,0,1
13,allocentric,0,4545.735,0,2
13,allocentric,-135,1564.405,0,3
13,allocentric,180,4436.99,1,4
13,allocentric,-90,2913.95,0,5
13,allocentric,135,2912.59,0,6
13,allocentric,-45,1979.775,0,7
13,allocentric,90,6061.91,1,8
13,allocentric,90,5294.035,1,9
13,allocentric,90,3237.575,0,10
13,allocentric,135,2523.185,0,11
13,allocentric,-45,2099.615,1,12
13,allocentric,180,4030.84,0,13
13,allocentric,-135,2179.79,1,14
13,allocentric,135,5213.275,1,15
13,allocentric,45,3133.47,0,16
13,allocentric,-45,1418.495,0,17
13,allocentric,180,1754.295,1,18
13,allocentric,-90,1862.375,0,19
13,allocentric,90,5745.79,0,20
13,allocentric,45,3066.47,1,21
13,allocentric,45,1713.17,1,22
13,allocentric,180,4167.03,0,23
13,allocentric,45,2472.98,0,24
13,allocentric,90,2345.385,0,25
13,allocentric,0,3116.535,0,26
13,allocentric,135,1940.75,1,27
13,allocentric,180,6766.035,1,28
13,allocentric,45,5108.665,0,29
13,allocentric,-90,6178.965,0,30
13,allocentric,-45,2525.15,0,31
13,allocentric,-90,2095.895,0,32
13,allocentric,135,2639.63,1,33
13,allocentric,-90,2814.625,0,34
13,allocentric,-90,1298.415,0,35
13,allocentric,45,4595.73,0,36
13,allocentric,-135,3308.485,0,37
13,allocentric,-135,1619.52,0,38
13,allocentric,-135,1313.63,0,39
13,allocentric,180,3352.285,1,40
13,allocentric,-135,1414.745,0,41
13,allocentric,-45,2556.865,1,42
13,allocentric,-135,1497.84,0,43
13,allocentric,90,5160.495,0,44
13,allocentric,90,6051.6,0,45
13,allocentric,135,3287.45,0,46
13,allocentric,0,4215.18,0,47
13,allocentric,180,2107.24,1,48
13,allocentric,45,3789.575,0,49
13,allocentric,90,2898.865,0,50
13,allocentric,-90,1429.05,0,51
13,allocentric,135,3015.295,0,52
13,allocentric,45,6514.625,0,53
13,allocentric,0,6449,0,54
13,allocentric,135,1841.175,1,55
13,allocentric,90,NA,0,56
13,allocentric,-90,1868.57,1,57
13,allocentric,-90,2198.185,0,58
13,allocentric,0,4381.855,0,59
13,allocentric,-90,1914.19,0,60
13,allocentric,180,1939.14,1,61
13,allocentric,135,3131.16,0,62
13,allocentric,-135,3652.77,0,63
13,allocentric,-45,3967.2,0,64
13,allocentric,45,2548.055,0,65
13,allocentric,180,2582.25,1,66
13,allocentric,-135,1591.83,0,67
13,allocentric,45,NA,0,68
13,allocentric,0,2385.625,0,69
13,allocentric,45,2863.38,0,70
13,allocentric,-90,2984.14,0,71
13,allocentric,-45,1561.96,0,72
13,allocentric,-45,5262.835,0,73
13,allocentric,90,1635.625,0,74
13,allocentric,0,4170.95,0,75
13,allocentric,90,4254.51,1,76
13,allocentric,135,3239.075,1,77
13,allocentric,135,3703.845,0,78
13,allocentric,-45,1688.54,0,79
13,allocentric,-45,2002.655,0,80
13,allocentric,45,1666.12,0,81
13,allocentric,0,1509.61,0,82
13,allocentric,-45,2045.345,0,83
13,allocentric,-135,1819.215,0,84
13,allocentric,-45,2320.795,0,85
13,allocentric,0,3933.14,1,86
13,allocentric,135,4095.4,0,87
13,allocentric,180,3164.8,0,88
13,allocentric,180,1800.875,1,89
13,allocentric,180,3120.125,1,90
13,allocentric,90,2014.935,0,91
13,allocentric,90,2055.97,0,92
13,allocentric,-135,1681.44,0,93
13,allocentric,135,2004.815,0,94
13,allocentric,-45,1815.855,0,95
13,allocentric,135,2713.015,0,96
13,allocentric,-90,1203.76,0,97
13,allocentric,0,2420.41,0,98
13,allocentric,180,2097.41,1,99
13,allocentric,0,2064.505,0,100
13,allocentric,-135,2704.455,0,101
13,allocentric,45,3885.73,0,102
13,allocentric,-90,1260.035,0,103
13,allocentric,0,1249.31,0,104
13,allocentric,-45,1668.355,0,105
13,allocentric,0,2221.42,0,106
13,allocentric,90,3751.005,0,107
13,allocentric,-90,2283.775,0,108
13,allocentric,180,1581.475,0,109
13,allocentric,-135,2349.64,1,110
13,egocentric,-135,3053.145,1,0
13,egocentric,-90,2405.045,1,1
13,egocentric,180,2891.525,1,2
13,egocentric,0,2366.885,1,3
13,egocentric,135,3175.88,1,4
13,egocentric,180,2706.755,1,5
13,egocentric,-90,3516.03,1,6
13,egocentric,90,1691.405,1,7
13,egocentric,90,2450.41,1,8
13,egocentric,45,3656.185,1,9
13,egocentric,-90,1373.045,1,10
13,egocentric,0,1206.285,1,11
13,egocentric,180,2559.125,1,12
13,egocentric,-45,1755.03,1,13
13,egocentric,135,2550.045,1,14
13,egocentric,0,1566.9,1,15
13,egocentric,45,1367.195,1,16
13,egocentric,0,1466.625,1,17
13,egocentric,135,2570.105,1,18
13,egocentric,-45,1932.56,1,19
13,egocentric,0,1409.35,1,20
13,egocentric,-135,7115.375,1,21
13,egocentric,-135,2748.325,1,22
13,egocentric,135,4350.61,0,23
13,egocentric,180,2566.245,1,24
13,egocentric,-90,2965.56,1,25
13,egocentric,-135,3118.215,1,26
13,egocentric,45,4969.615,1,27
13,egocentric,45,3456.845,1,28
13,egocentric,-135,2955.815,1,29
13,egocentric,135,3329.275,1,30
13,egocentric,-90,2160.29,1,31
13,egocentric,-90,2234.295,1,32
13,egocentric,-45,3216.09,1,33
13,egocentric,45,1853.41,1,34
13,egocentric,45,1792.13,1,35
13,egocentric,-135,1407.305,1,36
13,egocentric,-45,1021.595,1,37
13,egocentric,-90,1800.195,1,38
13,egocentric,-45,1260.135,1,39
13,egocentric,-45,1073.76,1,40
13,egocentric,90,1206.735,1,41
13,egocentric,-90,1920.14,1,42
13,egocentric,45,2666.31,1,43
13,egocentric,135,1752.695,1,44
13,egocentric,45,1689.835,1,45
13,egocentric,45,1439.595,1,46
13,egocentric,135,2609.325,1,47
13,egocentric,45,1401.11,1,48
13,egocentric,0,1906.59,1,49
13,egocentric,90,1915.965,1,50
13,egocentric,180,2095.44,1,51
13,egocentric,-135,1792.285,1,52
13,egocentric,180,1976.225,1,53
13,egocentric,180,3052.335,1,54
13,egocentric,90,1841.72,1,55
13,egocentric,90,1517.355,1,56
13,egocentric,-135,3651.61,1,57
13,egocentric,135,2050.025,1,58
13,egocentric,-135,5033.25,0,59
13,egocentric,180,2867.275,1,60
13,egocentric,90,2130.855,1,61
13,egocentric,90,1368.52,0,62
13,egocentric,90,2358.245,1,63
13,egocentric,180,2915.435,1,64
13,egocentric,135,2682.34,1,65
13,egocentric,180,3132,1,66
13,egocentric,180,2153.59,1,67
13,egocentric,-135,2951.695,1,68
13,egocentric,-45,1333.28,1,69
13,egocentric,45,2917.905,0,70
13,egocentric,180,2699.28,1,71
13,egocentric,135,2657.245,1,72
13,egocentric,135,2842.425,1,73
13,egocentric,90,1288.875,1,74
13,egocentric,-90,1387.105,1,75
13,egocentric,0,1383.6,1,76
13,egocentric,0,957.06,1,77
13,egocentric,135,1684.1,1,78
13,egocentric,0,999.885,1,79
13,egocentric,-90,1635.21,1,80
13,egocentric,-90,1334.125,1,81
13,egocentric,-135,3874.185,1,82
13,egocentric,-45,1707.02,1,83
13,egocentric,90,1770.505,1,84
13,egocentric,45,1584.34,1,85
13,egocentric,180,2275.365,1,86
13,egocentric,45,3752.07,1,87
13,egocentric,-90,2298.52,1,88
13,egocentric,0,853.07,1,89
13,egocentric,90,1543.73,1,90
13,egocentric,90,1440.865,1,91
13,egocentric,0,1167.235,1,92
13,egocentric,0,892.075,1,93
13,egocentric,-135,2066.475,1,94
13,egocentric,0,1241.415,1,95
13,egocentric,-135,2259.06,1,96
13,egocentric,-45,2986.3,1,97
13,egocentric,-45,970.66,1,98
13,egocentric,-90,3465.725,1,99
13,egocentric,0,1409.12,1,100
13,egocentric,135,2123.08,1,101
13,egocentric,180,2172.125,0,102
13,egocentric,-45,2305.505,1,103
13,egocentric,90,2822.73,1,104
13,egocentric,135,1486.34,1,105
13,egocentric,-90,1608.545,1,106
13,egocentric,45,7616.11,1,107
13,egocentric,-135,3973.14,1,108
13,egocentric,-45,3706.605,1,109
13,egocentric,-45,1884.415,1,110
14,allocentric,180,1097.705,1,0
14,allocentric,45,3038.245,1,1
14,allocentric,-90,2367.855,1,2
14,allocentric,-135,1585.56,1,3
14,allocentric,45,1550.085,1,4
14,allocentric,180,4082.53,1,5
14,allocentric,-45,1273.08,1,6
14,allocentric,-90,2681.34,1,7
14,allocentric,90,2050.94,1,8
14,allocentric,0,1316.33,1,9
14,allocentric,-90,1186.12,1,10
14,allocentric,90,1054.63,1,11
14,allocentric,-135,1684.17,1,12
14,allocentric,135,2497.805,1,13
14,allocentric,-45,1729.215,1,14
14,allocentric,180,1225.425,1,15
14,allocentric,-90,1536.485,1,16
14,allocentric,-90,1499.97,1,17
14,allocentric,-45,1990.735,1,18
14,allocentric,180,1933.62,1,19
14,allocentric,180,1370.155,1,20
14,allocentric,0,1597.565,1,21
14,allocentric,180,2365.99,1,22
14,allocentric,0,1533.085,1,23
14,allocentric,180,1702.025,1,24
14,allocentric,135,1133.82,1,25
14,allocentric,0,1387.08,1,26
14,allocentric,-45,1512.02,1,27
14,allocentric,0,1001.49,1,28
14,allocentric,0,1316.09,1,29
14,allocentric,-45,2136.995,1,30
14,allocentric,-45,1034.015,1,31
14,allocentric,-135,2087.495,1,32
14,allocentric,-135,1120.81,1,33
14,allocentric,135,2348.12,1,34
14,allocentric,45,1382.735,1,35
14,allocentric,135,933.025,1,36
14,allocentric,180,934.48,1,37
14,allocentric,-135,1100.665,1,38
14,allocentric,90,1382.915,1,39
14,allocentric,135,1301.23,1,40
14,allocentric,45,1599.465,1,41
14,allocentric,-90,984.105,1,42
14,allocentric,45,884.25,1,43
14,allocentric,135,3145.775,1,44
14,allocentric,-45,701.99,1,45
14,allocentric,-135,889.165,1,46
14,allocentric,135,901.515,1,47
14,allocentric,-90,2105.055,1,48
14,allocentric,0,871.055,1,49
14,allocentric,-90,2016.075,1,50
14,allocentric,-135,737.215,1,51
14,allocentric,-135,1903.67,1,52
14,allocentric,45,1000.64,0,53
14,allocentric,-45,1750.855,1,54
14,allocentric,-45,1183.5,1,55
14,allocentric,135,2065.015,1,56
14,allocentric,135,1266.345,1,57
14,allocentric,-135,1698.475,1,58
14,allocentric,-45,1767.595,1,59
14,allocentric,-135,1415.525,1,60
14,allocentric,-90,2715.375,1,61
14,allocentric,-45,1566.595,1,62
14,allocentric,0,1483.89,1,63
14,allocentric,0,1050.92,1,64
14,allocentric,135,1133.515,1,65
14,allocentric,-90,1172.075,1,66
14,allocentric,-90,2296.85,1,67
14,allocentric,-135,3565.43,1,68
14,allocentric,180,859.105,1,69
14,allocentric,45,1272.47,1,70
14,allocentric,180,1937.025,1,71
14,allocentric,90,1019.05,1,72
14,allocentric,90,1534.99,0,73
14,allocentric,180,1123.235,1,74
14,allocentric,180,897.09,1,75
14,allocentric,135,1084.015,1,76
14,allocentric,90,950.1,1,77
14,allocentric,0,885.77,1,78
14,allocentric,90,659.38,1,79
14,allocentric,-90,1200.7,1,80
14,allocentric,90,1016.99,1,81
14,allocentric,135,2197.63,1,82
14,allocentric,90,1620.64,1,83
14,allocentric,-45,1757.255,1,84
14,allocentric,180,1855.7,1,85
14,allocentric,45,1467.025,1,86
14,allocentric,180,1451.24,1,87
14,allocentric,90,1216.31,1,88
14,allocentric,-135,1134.12,1,89
14,allocentric,0,1517.735,1,90
14,allocentric,45,1670.38,1,91
14,allocentric,90,1765.465,1,92
14,allocentric,0,849.105,1,93
14,allocentric,0,1103.94,1,94
14,allocentric,45,801.36,1,95
14,allocentric,-135,1786.205,1,96
14,allocentric,45,940.985,1,97
14,allocentric,90,1167.54,1,98
14,allocentric,-90,1003.5,1,99
14,allocentric,135,1667.37,1,100
14,allocentric,135,633.78,1,101
14,allocentric,90,1082.86,1,102
14,allocentric,-45,1307.215,1,103
14,allocentric,90,868.525,1,104
14,allocentric,0,717.225,1,105
14,allocentric,45,702.055,1,106
14,allocentric,-45,754.16,1,107
14,allocentric,45,801.375,1,108
14,allocentric,45,584.05,1,109
14,allocentric,-90,650.89,1,110
14,egocentric,45,778.855,1,0
14,egocentric,180,2490.105,1,1
14,egocentric,90,1302.36,1,2
14,egocentric,180,2067.62,1,3
14,egocentric,-90,1122.105,1,4
14,egocentric,-45,967.44,1,5
14,egocentric,0,1133.99,1,6
14,egocentric,-135,1531.61,1,7
14,egocentric,-45,1118.01,1,8
14,egocentric,0,884.36,1,9
14,egocentric,-45,934.165,1,10
14,egocentric,0,651.46,1,11
14,egocentric,-45,788.975,1,12
14,egocentric,45,634.31,1,13
14,egocentric,0,801.235,1,14
14,egocentric,-90,706.905,1,15
14,egocentric,45,1450.3,1,16
14,egocentric,-135,1398.61,1,17
14,egocentric,90,1068.425,1,18
14,egocentric,180,1166.475,1,19
14,egocentric,180,1556.83,1,20
14,egocentric,180,2166.495,1,21
14,egocentric,-90,1882.955,1,22
14,egocentric,90,1283.88,1,23
14,egocentric,45,921.595,1,24
14,egocentric,135,4797.35,0,25
14,egocentric,-135,1169.78,1,26
14,egocentric,-135,1450.775,1,27
14,egocentric,135,1217.375,1,28
14,egocentric,135,2300.71,1,29
14,egocentric,90,1417.54,1,30
14,egocentric,-90,1118.98,1,31
14,egocentric,90,1135.06,1,32
14,egocentric,180,1135.69,1,33
14,egocentric,135,1413.935,1,34
14,egocentric,-135,1690.11,1,35
14,egocentric,180,1054.11,1,36
14,egocentric,0,735.965,1,37
14,egocentric,-90,803.385,1,38
14,egocentric,0,717.61,1,39
14,egocentric,90,751.11,1,40
14,egocentric,-90,702.625,1,41
14,egocentric,0,892.755,1,42
14,egocentric,180,1137.5,0,43
14,egocentric,45,900.32,1,44
14,egocentric,-45,1334.7,1,45
14,egocentric,-135,1716.75,1,46
14,egocentric,180,2869.025,1,47
14,egocentric,135,1666.61,1,48
14,egocentric,-135,1069.175,1,49
14,egocentric,45,1334.005,1,50
14,egocentric,0,1018.375,1,51
14,egocentric,135,1598.82,1,52
14,egocentric,45,1351.47,1,53
14,egocentric,-135,1069.51,1,54
14,egocentric,-45,1021.18,1,55
14,egocentric,-45,668.735,1,56
14,egocentric,45,772.115,1,57
14,egocentric,-45,700.82,1,58
14,egocentric,45,621.57,1,59
14,egocentric,-45,734.165,1,60
14,egocentric,0,641.335,1,61
14,egocentric,-135,600.8,1,62
14,egocentric,0,900.445,1,63
14,egocentric,45,617.385,1,64
14,egocentric,-90,632.415,1,65
14,egocentric,0,601.435,1,66
14,egocentric,90,1068.005,1,67
14,egocentric,-135,666.115,0,68
14,egocentric,180,1409.61,1,69
14,egocentric,-135,851.415,1,70
14,egocentric,45,1034.73,1,71
14,egocentric,-90,701.2,1,72
14,egocentric,0,700.625,1,73
14,egocentric,-45,834.425,0,74
14,egocentric,90,1566.315,1,75
14,egocentric,90,1517.68,1,76
14,egocentric,-135,1451.815,1,77
14,egocentric,90,968.36,1,78
14,egocentric,90,1068.685,1,79
14,egocentric,-135,1300.545,1,80
14,egocentric,135,1054.015,1,81
14,egocentric,135,1066.25,1,82
14,egocentric,-135,2502.645,1,83
14,egocentric,-90,813.51,1,84
14,egocentric,180,1415.31,1,85
14,egocentric,135,1585.19,1,86
14,egocentric,180,2383.64,1,87
14,egocentric,-90,752.585,1,88
14,egocentric,0,967.75,1,89
14,egocentric,-45,900.84,1,90
14,egocentric,135,715.91,1,91
14,egocentric,45,858.175,1,92
14,egocentric,-45,717.09,1,93
14,egocentric,180,1183.705,1,94
14,egocentric,135,653.4,1,95
14,egocentric,180,502.64,1,96
14,egocentric,90,1033.625,1,97
14,egocentric,135,1441.665,0,98
14,egocentric,45,684.115,0,99
14,egocentric,-90,1434.58,1,100
14,egocentric,90,889.145,1,101
14,egocentric,-90,1902.505,1,102
14,egocentric,90,919.355,1,103
14,egocentric,-90,1168.55,1,104
14,egocentric,135,1286.33,0,105
14,egocentric,-45,1785.565,1,106
14,egocentric,-90,2134.15,1,107
14,egocentric,0,1000.91,1,108
14,egocentric,135,1449.825,1,109
14,egocentric,45,802.135,1,110
15,egocentric,0,652,1,0
15,egocentric,180,668,1,1
15,egocentric,-45,584,1,2
15,egocentric,180,1018,1,3
15,egocentric,-135,619,1,4
15,egocentric,45,730,1,5
15,egocentric,90,552,1,6
15,egocentric,135,582,1,7
15,egocentric,-135,569,1,8
15,egocentric,-135,867,1,9
15,egocentric,180,668,1,10
15,egocentric,90,665,1,11
15,egocentric,-135,819,1,12
15,egocentric,90,636,1,13
15,egocentric,-135,885,1,14
15,egocentric,0,1068,1,15
15,egocentric,90,535,1,16
15,egocentric,180,734,1,17
15,egocentric,180,790,1,18
15,egocentric,90,801,1,19
15,egocentric,90,749,1,20
15,egocentric,-45,729,1,21
15,egocentric,-135,554,1,22
15,egocentric,90,601,1,23
15,egocentric,-90,700,1,24
15,egocentric,0,632,1,25
15,egocentric,-90,583,1,26
15,egocentric,135,570,1,27
15,egocentric,-90,804,1,28
15,egocentric,90,569,1,29
15,egocentric,-45,533,1,30
15,egocentric,45,500,1,31
15,egocentric,-90,499,1,32
15,egocentric,-90,698,1,33
15,egocentric,90,536,1,34
15,egocentric,135,603,1,35
15,egocentric,45,553,1,36
15,egocentric,135,632,1,37
15,egocentric,-135,501,1,38
15,egocentric,0,452,1,39
15,egocentric,45,485,1,40
15,egocentric,0,501,1,41
15,egocentric,45,703,1,42
15,egocentric,135,618,1,43
15,egocentric,-90,451,1,44
15,egocentric,0,518,1,45
15,egocentric,-45,480,1,46
15,egocentric,0,468,1,47
15,egocentric,0,419,1,48
15,egocentric,45,416,1,49
15,egocentric,0,435,1,50
15,egocentric,-45,537,1,51
15,egocentric,-45,433,1,52
15,egocentric,-45,467,1,53
15,egocentric,45,602,1,54
15,egocentric,-45,518,1,55
15,egocentric,135,569,1,56
15,egocentric,-90,698,1,57
15,egocentric,45,453,1,58
15,egocentric,45,478,1,59
15,egocentric,-90,535,1,60
15,egocentric,135,535,1,61
15,egocentric,0,469,1,62
15,egocentric,-135,503,0,63
15,egocentric,135,967,1,64
15,egocentric,-45,479,1,65
15,egocentric,180,935,1,66
15,egocentric,45,717,1,67
15,egocentric,-45,532,1,68
15,egocentric,180,669,1,69
15,egocentric,0,536,1,70
15,egocentric,45,486,1,71
15,egocentric,135,737,1,72
15,egocentric,180,682,1,73
15,egocentric,90,495,1,74
15,egocentric,45,497,1,75
15,egocentric,-90,518,1,76
15,egocentric,-90,453,1,77
15,egocentric,-135,885,1,78
15,egocentric,135,517,1,79
15,egocentric,-45,603,1,80
15,egocentric,0,517,1,81
15,egocentric,0,596,1,82
15,egocentric,180,664,1,83
15,egocentric,-90,918,1,84
15,egocentric,-45,485,1,85
15,egocentric,-90,512,1,86
15,egocentric,-45,528,1,87
15,egocentric,180,635,1,88
15,egocentric,180,650,1,89
15,egocentric,180,637,1,90
15,egocentric,180,752,1,91
15,egocentric,135,597,1,92
15,egocentric,180,502,1,93
15,egocentric,90,546,1,94
15,egocentric,90,550,1,95
15,egocentric,-90,496,1,96
15,egocentric,-135,618,1,97
15,egocentric,-135,452,1,98
15,egocentric,135,900,1,99
15,egocentric,-90,750,1,100
15,egocentric,90,812,1,101
15,egocentric,135,869,1,102
15,egocentric,45,752,1,103
15,egocentric,-135,602,1,104
15,egocentric,45,517,1,105
15,egocentric,0,550,1,106
15,egocentric,135,567,1,107
15,egocentric,90,446,1,108
15,egocentric,-135,636,1,109
15,egocentric,-135,913,1,110
15,allocentric,90,1002,1,0
15,allocentric,90,756,1,1
15,allocentric,-45,685,1,2
15,allocentric,135,641,1,3
15,allocentric,90,682,1,4
15,allocentric,135,852,1,5
15,allocentric,-135,1097,1,6
15,allocentric,-90,820,1,7
15,allocentric,135,585,1,8
15,allocentric,135,835,1,9
15,allocentric,-135,753,1,10
15,allocentric,-45,902,1,11
15,allocentric,45,1215,1,12
15,allocentric,180,867,1,13
15,allocentric,180,986,1,14
15,allocentric,-45,736,1,15
15,allocentric,180,937,1,16
15,allocentric,180,902,1,17
15,allocentric,180,786,1,18
15,allocentric,135,753,1,19
15,allocentric,45,1073,1,20
15,allocentric,45,553,1,21
15,allocentric,90,551,1,22
15,allocentric,45,1536,1,23
15,allocentric,180,889,1,24
15,allocentric,180,686,1,25
15,allocentric,-90,668,1,26
15,allocentric,45,601,1,27
15,allocentric,-90,619,1,28
15,allocentric,-90,1070,1,29
15,allocentric,-45,589,1,30
15,allocentric,45,647,1,31
15,allocentric,0,574,1,32
15,allocentric,0,434,1,33
15,allocentric,-45,702,1,34
15,allocentric,45,520,1,35
15,allocentric,-45,574,1,36
15,allocentric,180,906,1,37
15,allocentric,180,802,1,38
15,allocentric,180,584,1,39
15,allocentric,135,1198,1,40
15,allocentric,-90,867,1,41
15,allocentric,0,619,1,42
15,allocentric,90,535,1,43
15,allocentric,90,1216,1,44
15,allocentric,90,682,1,45
15,allocentric,-90,553,1,46
15,allocentric,90,553,1,47
15,allocentric,45,503,1,48
15,allocentric,-45,802,1,49
15,allocentric,135,886,1,50
15,allocentric,-45,1080,1,51
15,allocentric,0,524,1,52
15,allocentric,135,670,1,53
15,allocentric,45,452,1,54
15,allocentric,0,487,1,55
15,allocentric,45,541,1,56
15,allocentric,-45,436,1,57
15,allocentric,90,566,1,58
15,allocentric,0,441,1,59
15,allocentric,-135,1019,1,60
15,allocentric,90,452,1,61
15,allocentric,-90,641,1,62
15,allocentric,135,852,1,63
15,allocentric,135,886,1,64
15,allocentric,135,636,1,65
15,allocentric,135,569,0,66
15,allocentric,-90,469,1,67
15,allocentric,180,579,1,68
15,allocentric,-135,1230,1,69
15,allocentric,-90,819,1,70
15,allocentric,180,986,1,71
15,allocentric,-135,979,1,72
15,allocentric,0,602,1,73
15,allocentric,-135,889,1,74
15,allocentric,-45,602,1,75
15,allocentric,-135,601,0,76
15,allocentric,180,852,1,77
15,allocentric,0,556,1,78
15,allocentric,45,825,1,79
15,allocentric,90,912,1,80
15,allocentric,0,669,1,81
15,allocentric,-90,673,1,82
15,allocentric,-45,636,1,83
15,allocentric,45,936,1,84
15,allocentric,-90,769,1,85
15,allocentric,-90,698,1,86
15,allocentric,135,575,1,87
15,allocentric,-135,629,1,88
15,allocentric,90,775,1,89
15,allocentric,0,536,1,90
15,allocentric,-135,636,1,91
15,allocentric,180,1102,1,92
15,allocentric,-45,735,1,93
15,allocentric,-90,623,1,94
15,allocentric,-135,1015,1,95
15,allocentric,-135,607,1,96
15,allocentric,0,469,1,97
15,allocentric,-90,620,1,98
15,allocentric,0,480,1,99
15,allocentric,-45,413,1,100
15,allocentric,0,502,1,101
15,allocentric,-45,553,1,102
15,allocentric,90,458,1,103
15,allocentric,0,449,1,104
15,allocentric,-135,569,1,105
15,allocentric,45,636,1,106
15,allocentric,-135,523,1,107
15,allocentric,90,536,1,108
15,allocentric,45,375,1,109
15,allocentric,135,813,1,110
16,egocentric,-90,834,1,0
16,egocentric,45,1011,1,1
16,egocentric,135,1031,1,2
16,egocentric,-45,802,1,3
16,egocentric,180,795,0,4
16,egocentric,45,979,1,5
16,egocentric,-45,914,1,6
16,egocentric,180,910,1,7
16,egocentric,-45,779,1,8
16,egocentric,-135,867,1,9
16,egocentric,90,782,1,10
16,egocentric,-90,832,1,11
16,egocentric,180,905,1,12
16,egocentric,45,643,1,13
16,egocentric,180,872,1,14
16,egocentric,-90,919,1,15
16,egocentric,180,1085,1,16
16,egocentric,-90,667,1,17
16,egocentric,0,853,1,18
16,egocentric,-45,632,1,19
16,egocentric,135,633,1,20
16,egocentric,-45,584,1,21
16,egocentric,45,617,1,22
16,egocentric,135,484,1,23
16,egocentric,135,516,1,24
16,egocentric,90,700,1,25
16,egocentric,135,567,1,26
16,egocentric,90,549,1,27
16,egocentric,45,816,1,28
16,egocentric,45,600,1,29
16,egocentric,180,750,1,30
16,egocentric,-135,555,1,31
16,egocentric,180,951,1,32
16,egocentric,-45,587,1,33
16,egocentric,0,536,1,34
16,egocentric,-90,634,1,35
16,egocentric,135,617,1,36
16,egocentric,135,868,1,37
16,egocentric,135,816,1,38
16,egocentric,-45,834,1,39
16,egocentric,0,616,1,40
16,egocentric,45,534,1,41
16,egocentric,-45,599,1,42
16,egocentric,45,515,1,43
16,egocentric,45,683,1,44
16,egocentric,-45,516,1,45
16,egocentric,90,618,1,46
16,egocentric,0,601,1,47
16,egocentric,90,650,1,48
16,egocentric,-90,686,1,49
16,egocentric,180,701,1,50
16,egocentric,135,1349,1,51
16,egocentric,-90,559,1,52
16,egocentric,-135,801,1,53
16,egocentric,135,717,1,54
16,egocentric,-135,700,1,55
16,egocentric,45,566,1,56
16,egocentric,-90,817,1,57
16,egocentric,90,636,1,58
16,egocentric,135,617,1,59
16,egocentric,180,902,1,60
16,egocentric,-90,803,1,61
16,egocentric,90,767,1,62
16,egocentric,-135,883,1,63
16,egocentric,-135,737,1,64
16,egocentric,-90,650,1,65
16,egocentric,45,667,1,66
16,egocentric,-135,599,1,67
16,egocentric,-45,584,1,68
16,egocentric,90,468,1,69
16,egocentric,180,527,1,70
16,egocentric,0,467,1,71
16,egocentric,180,682,1,72
16,egocentric,135,834,1,73
16,egocentric,180,832,1,74
16,egocentric,180,1116,1,75
16,egocentric,90,618,1,76
16,egocentric,-90,534,1,77
16,egocentric,-90,501,1,78
16,egocentric,-90,965,1,79
16,egocentric,45,669,1,80
16,egocentric,90,534,1,81
16,egocentric,-135,600,1,82
16,egocentric,90,583,1,83
16,egocentric,90,571,1,84
16,egocentric,45,537,1,85
16,egocentric,90,983,1,86
16,egocentric,-45,667,1,87
16,egocentric,-135,666,1,88
16,egocentric,135,801,1,89
16,egocentric,0,916,1,90
16,egocentric,-135,916,1,91
16,egocentric,0,650,1,92
16,egocentric,0,517,1,93
16,egocentric,-135,851,1,94
16,egocentric,-135,550,1,95
16,egocentric,-135,800,1,96
16,egocentric,180,584,1,97
16,egocentric,135,551,1,98
16,egocentric,-135,616,1,99
16,egocentric,45,567,1,100
16,egocentric,0,569,1,101
16,egocentric,90,600,1,102
16,egocentric,0,484,1,103
16,egocentric,-45,465,1,104
16,egocentric,0,443,1,105
16,egocentric,0,653,1,106
16,egocentric,0,552,1,107
16,egocentric,-45,516,1,108
16,egocentric,-90,516,1,109
16,egocentric,0,633,1,110
16,allocentric,45,1653,1,0
16,allocentric,-90,1353,1,1
16,allocentric,-90,902,1,2
16,allocentric,90,1503,1,3
16,allocentric,-90,870,1,4
16,allocentric,-90,985,1,5
16,allocentric,0,935,1,6
16,allocentric,90,902,1,7
16,allocentric,-45,1086,1,8
16,allocentric,-45,937,1,9
16,allocentric,90,870,1,10
16,allocentric,90,913,1,11
16,allocentric,45,1159,1,12
16,allocentric,45,686,1,13
16,allocentric,180,1052,1,14
16,allocentric,45,1762,1,15
16,allocentric,-135,996,1,16
16,allocentric,-135,1024,1,17
16,allocentric,-45,751,1,18
16,allocentric,90,834,1,19
16,allocentric,180,1170,1,20
16,allocentric,135,768,1,21
16,allocentric,45,723,1,22
16,allocentric,-90,1072,1,23
16,allocentric,-135,871,1,24
16,allocentric,180,1270,1,25
16,allocentric,180,1818,1,26
16,allocentric,45,712,1,27
16,allocentric,90,759,1,28
16,allocentric,-135,686,1,29
16,allocentric,45,951,1,30
16,allocentric,-135,1414,1,31
16,allocentric,0,724,1,32
16,allocentric,-45,648,1,33
16,allocentric,135,2510,1,34
16,allocentric,0,669,1,35
16,allocentric,-45,705,1,36
16,allocentric,135,870,1,37
16,allocentric,-135,830,1,38
16,allocentric,-45,768,1,39
16,allocentric,0,870,1,40
16,allocentric,180,873,1,41
16,allocentric,0,938,1,42
16,allocentric,90,751,1,43
16,allocentric,0,787,1,44
16,allocentric,0,686,1,45
16,allocentric,-90,872,1,46
16,allocentric,135,916,1,47
16,allocentric,180,1207,1,48
16,allocentric,90,919,1,49
16,allocentric,-90,775,1,50
